temp,light,acc_x1,acc_y1,acc_z1,acc_x2,acc_y2,acc_z2,acc_x3,acc_y3,acc_z3,acc_x4,acc_y4,acc_z4,acc_x5,acc_y5,acc_z5,acc_x6,acc_y6,acc_z6,acc_x7,acc_y7,acc_z7,acc_x8,acc_y8,acc_z8,acc_x9,acc_y9,acc_z9,acc_x10,acc_y10,acc_z10,acc_x11,acc_y11,acc_z11,acc_x12,acc_y12,acc_z12,acc_x13,acc_y13,acc_z13,acc_x14,acc_y14,acc_z14,acc_x15,acc_y15,acc_z15,acc_x16,acc_y16,acc_z16,acc_x17,acc_y17,acc_z17,acc_x18,acc_y18,acc_z18,acc_x19,acc_y19,acc_z19,acc_x20,acc_y20,acc_z20,acc_x21,acc_y21,acc_z21,acc_x22,acc_y22,acc_z22,acc_x23,acc_y23,acc_z23,acc_x24,acc_y24,acc_z24,acc_x25,acc_y25,acc_z25,acc_x26,acc_y26,acc_z26,acc_x27,acc_y27,acc_z27,acc_x28,acc_y28,acc_z28,acc_x29,acc_y29,acc_z29,acc_x30,acc_y30,acc_z30,acc_x31,acc_y31,acc_z31,acc_x32,acc_y32,acc_z32,acc_x33,acc_y33,acc_z33,acc_x34,acc_y34,acc_z34,acc_x35,acc_y35,acc_z35,acc_x36,acc_y36,acc_z36,acc_x37,acc_y37,acc_z37,acc_x38,acc_y38,acc_z38,acc_x39,acc_y39,acc_z39,acc_x40,acc_y40,acc_z40,acc_x41,acc_y41,acc_z41,acc_x42,acc_y42,acc_z42,acc_x43,acc_y43,acc_z43,acc_x44,acc_y44,acc_z44,acc_x45,acc_y45,acc_z45,acc_x46,acc_y46,acc_z46,acc_x47,acc_y47,acc_z47,acc_x48,acc_y48,acc_z48,acc_x49,acc_y49,acc_z49,acc_x50,acc_y50,acc_z50,acc_x51,acc_y51,acc_z51,acc_x52,acc_y52,acc_z52,acc_x53,acc_y53,acc_z53,acc_x54,acc_y54,acc_z54,acc_x55,acc_y55,acc_z55,acc_x56,acc_y56,acc_z56,acc_x57,acc_y57,acc_z57,acc_x58,acc_y58,acc_z58,acc_x59,acc_y59,acc_z59,acc_x60,acc_y60,acc_z60,acc_x61,acc_y61,acc_z61,acc_x62,acc_y62,acc_z62,acc_x63,acc_y63,acc_z63,acc_x64,acc_y64,acc_z64,acc_x65,acc_y65,acc_z65,acc_x66,acc_y66,acc_z66,acc_x67,acc_y67,acc_z67,acc_x68,acc_y68,acc_z68,acc_x69,acc_y69,acc_z69,acc_x70,acc_y70,acc_z70,acc_x71,acc_y71,acc_z71,acc_x72,acc_y72,acc_z72,acc_x73,acc_y73,acc_z73,acc_x74,acc_y74,acc_z74,acc_x75,acc_y75,acc_z75,acc_x76,acc_y76,acc_z76,acc_x77,acc_y77,acc_z77,acc_x78,acc_y78,acc_z78,acc_x79,acc_y79,acc_z79,acc_x80,acc_y80,acc_z80,acc_x81,acc_y81,acc_z81,acc_x82,acc_y82,acc_z82,acc_x83,acc_y83,acc_z83,acc_x84,acc_y84,acc_z84,acc_x85,acc_y85,acc_z85,acc_x86,acc_y86,acc_z86,acc_x87,acc_y87,acc_z87,acc_x88,acc_y88,acc_z88,acc_x89,acc_y89,acc_z89,acc_x90,acc_y90,acc_z90,acc_x91,acc_y91,acc_z91,acc_x92,acc_y92,acc_z92,acc_x93,acc_y93,acc_z93,acc_x94,acc_y94,acc_z94,acc_x95,acc_y95,acc_z95,acc_x96,acc_y96,acc_z96,acc_x97,acc_y97,acc_z97,acc_x98,acc_y98,acc_z98,acc_x99,acc_y99,acc_z99,acc_x100,acc_y100,acc_z100
36.65, 34319.16,24,-42,181,37,-54,217,41,-28,215,36,-45,155,38,-39,236,28,-39,179,38,-57,210,42,-26,217,28,-51,154,33,-40,241,28,-38,183,41,-51,202,45,-30,223,29,-48,152,37,-43,243,30,-36,188,42,-54,195,25,-46,156,40,-45,239,32,-31,190,42,-55,191,41,-32,228,20,-50,160,40,-49,242,33,-34,193,43,-52,185,39,-32,227,18,-50,160,36,-51,242,36,-31,200,43,-53,180,41,-32,225,15,-46,162,33,-54,244,37,-26,202,46,-51,170,41,-28,233,18,-51,171,38,-48,238,37,-28,207,46,-50,167,41,-25,220,17,-43,173,41,-56,237,45,-20,206,47,-51,166,43,-29,234,18,-44,176,42,-54,229,42,-24,205,41,-52,163,39,-34,235,21,-50,178,44,-58,227,39,-29,210,40,-54,161,44,-37,233,23,-44,183,48,-61,218,47,-23,213,36,-57,158,41,-41,239,17,-43,186,45,-61,211,41,-26,213,30,-51,157,38,-43,239,25,-40,186,48,-59,211,40,-24,223,30,-53,152,37,-36,241,21,-37,189,44,-52,197,34,-22,220,27,-53,156,35,-37,243,28,-37,193,48,-47,195,36,-21,223,28,-49,154,35,-34,239,32,-32,193,46,-46,189,34,-20,227,26,-47,155,37,-36,245,35,-32,198,48,-43,178,37,-23,230,21,-47,160,38,-42,236,46,-47,177,40,-30,238,23,-51,160,37,-44,235,34,-38,200,41,-48,174,35,-34,230,20,-50,161
36.55, 34338.33,16,-47,169,16,-47,169,38,-56,232,37,-30,207,44,-54,162,41,-32,230,42,-58,234,39,-28,213,41,-57,159,52,-31,242,18,-45,176,42,-58,224,38,-22,206,37,-49,155,47,-38,233,19,-33,176,42,-61,222,40,-23,215,33,-52,152,41,-39,240,20,-38,183,45,-56,215,40,-27,222,35,-48,159,39,-38,240,21,-34,178,40,-51,204,37,-23,224,29,-46,153,39,-37,239,27,-32,186,41,-51,198,42,-22,231,27,-46,153,38,-39,248,34,-30,196,44,-45,183,42,-22,229,26,-39,153,37,-43,243,37,-28,200,45,-45,175,39,-27,235,21,-45,159,34,-44,237,33,-35,206,48,-46,174,40,-28,227,24,-48,171,35,-48,237,38,-38,199,44,-40,170,34,-38,240,28,-42,168,33,-47,226,35,-35,209,35,-45,174,28,-34,235,20,-46,154,27,-44,227,34,-36,212,41,-45,166,33,-23,237,20,-52,173,32,-42,238,36,-32,216,32,-43,162,28,-27,240,20,-34,166,30,-45,218,39,-27,207,27,-37,159,28,-30,246,21,-39,186,32,-45,229,39,-30,212,27,-40,160,31,-35,239,25,-36,177,33,-48,219,43,-32,216,29,-41,166,32,-37,240,34,-47,224,47,-34,215,37,-35,148,37,-42,238,32,-39,188,43,-49,211,47,-27,221,36,-48,168,37,-35,235,28,-38,177,37,-52,212,40,-35,215,37,-38,157,41,-44,237,34,-34,192,46,-52,203,43,-32,224
36.77, 34343.33,38,-38,225,31,-48,165,37,-49,235,37,-38,198,55,-53,199,43,-28,217,36,-44,159,41,-44,232,44,-27,189,57,-44,180,47,-24,223,35,-36,160,45,-45,244,51,-23,210,55,-41,170,42,-22,231,30,-34,167,39,-40,234,50,-24,206,49,-35,162,33,-29,235,27,-40,177,32,-49,225,42,-30,211,37,-51,169,30,-35,231,19,-46,165,29,-54,230,41,-38,213,40,-46,162,32,-35,235,21,-53,182,32,-51,234,40,-35,205,37,-46,163,29,-39,231,21,-42,169,34,-48,216,45,-34,209,37,-35,157,34,-35,242,33,-35,183,36,-44,217,47,-24,219,32,-34,151,38,-33,238,36,-27,183,38,-45,200,46,-23,221,20,-37,156,28,-41,245,28,-30,190,30,-45,199,35,-29,218,12,-43,159,24,-41,245,26,-40,192,25,-49,208,28,-31,234,13,-49,160,21,-34,239,25,-41,193,30,-46,200,32,-33,218,20,-40,161,31,-43,234,37,-31,191,35,-49,201,42,-26,234,23,-47,158,45,-41,242,40,-28,197,45,-46,186,20,-39,160,39,-49,234,38,-26,198,44,-48,181,43,-29,227,22,-43,169,39,-48,233,38,-30,202,42,-46,181,37,-28,231,24,-41,170,43,-44,230,42,-24,205,44,-45,170,37,-25,231,23,-42,179,44,-45,229,40,-25,210,42,-42,173,35,-27,221,21,-35,180,42,-52,228,42,-22,205,38,-47,169,33,-32,237,22,-41,174,41,-50,226
36.71, 34333.33,42,-46,212,40,-24,224,37,-46,159,35,-30,236,28,-39,187,41,-50,208,37,-25,216,28,-40,153,31,-37,237,31,-35,189,45,-48,202,42,-23,220,28,-45,153,31,-38,239,27,-37,195,42,-45,199,38,-26,217,23,-42,155,29,-45,242,32,-31,192,44,-45,189,36,-28,228,20,-45,163,31,-42,237,31,-33,197,37,-47,188,33,-30,220,13,-44,162,29,-45,240,34,-30,198,42,-47,186,36,-28,228,16,-46,165,31,-46,245,37,-29,198,38,-45,173,32,-29,233,17,-44,168,37,-44,236,39,-27,206,40,-47,176,35,-25,230,16,-46,172,36,-46,244,40,-25,199,40,-43,166,35,-30,230,19,-43,176,47,-50,234,49,-24,205,45,-48,174,42,-33,227,18,-44,174,42,-54,235,43,-31,199,43,-42,159,38,-37,230,28,-42,185,49,-49,219,42,-23,204,40,-53,174,39,-28,230,25,-40,179,46,-52,229,38,-43,163,39,-29,238,23,-37,183,48,-50,219,39,-22,210,33,-45,164,42,-33,238,27,-26,180,47,-49,213,39,-17,216,23,-42,154,38,-34,246,23,-32,189,41,-47,203,40,-16,222,16,-44,155,37,-34,242,26,-26,186,42,-46,198,41,-20,226,16,-43,151,32,-38,243,25,-30,196,38,-46,187,35,-21,229,16,-41,152,32,-37,244,31,-30,199,42,-42,177,32,-25,234,16,-43,157,31,-38,241,34,-33,203,42,-42,173,31,-19,229,14,-49,165
36.63, 34335.83,14,-44,175,36,-44,238,36,-28,203,33,-43,175,33,-27,234,13,-43,166,31,-47,242,35,-30,208,36,-38,162,33,-28,230,11,-41,180,40,-49,235,37,-21,206,34,-44,166,37,-27,239,18,-41,175,40,-46,234,36,-25,212,32,-41,154,34,-32,235,22,-37,184,43,-48,218,43,-21,214,32,-43,160,37,-31,241,26,-36,183,48,-45,221,45,-22,219,34,-39,150,39,-29,233,25,-33,191,49,-44,205,41,-18,214,29,-41,161,41,-33,244,32,-30,193,49,-45,205,38,-16,218,25,-38,153,39,-34,237,32,-28,195,53,-41,194,40,-17,216,25,-43,164,38,-37,248,34,-30,197,48,-41,192,35,-19,222,23,-42,156,40,-38,242,35,-29,197,49,-41,184,33,-21,223,22,-41,161,33,-24,201,46,-38,180,38,-10,233,26,-44,168,39,-29,247,32,-29,198,33,-37,173,30,-16,234,16,-45,161,39,-37,244,35,-28,201,40,-40,164,37,-20,234,18,-52,171,40,-41,240,39,-35,204,37,-42,165,32,-30,233,22,-49,169,40,-46,236,40,-34,206,36,-40,159,35,-34,231,15,-43,170,35,-50,233,45,-33,211,37,-40,153,41,-36,239,23,-45,179,42,-48,226,40,-33,202,29,-40,159,35,-41,238,25,-39,177,42,-51,221,40,-34,214,31,-44,164,37,-38,241,24,-39,178,39,-47,216,34,-26,211,21,-44,158,34,-33,241,20,-38,185,38,-47,225,33,-23,214
36.85, 34336.66,42,-20,216,21,-35,152,41,-36,243,36,-27,195,51,-41,195,47,-19,216,20,-43,161,44,-41,249,37,-26,190,51,-42,183,42,-26,220,22,-42,162,50,-40,242,40,-28,194,53,-46,185,43,-25,227,27,-43,157,46,-43,242,40,-33,198,52,-39,167,36,-26,226,24,-49,165,43,-43,241,41,-34,209,51,-44,169,39,-19,230,23,-52,171,47,-42,239,36,-27,199,44,-43,164,33,-25,229,21,-46,171,46,-43,240,39,-29,208,41,-43,160,28,-21,236,19,-46,176,44,-42,233,37,-25,203,37,-41,161,29,-23,240,20,-42,175,42,-43,236,36,-27,214,32,-26,233,19,-40,173,41,-46,227,35,-21,209,32,-45,161,36,-24,243,24,-39,177,42,-46,227,37,-25,206,25,-42,153,33,-34,247,23,-36,179,46,-47,221,39,-25,211,24,-47,155,33,-35,249,23,-38,176,43,-45,210,36,-29,215,21,-46,156,37,-38,248,27,-36,187,45,-47,208,40,-24,212,19,-46,158,37,-38,247,28,-31,184,45,-44,206,38,-24,220,18,-46,159,40,-37,248,32,-30,190,47,-43,193,39,-22,217,17,-43,162,42,-39,243,32,-30,194,46,-46,198,42,-18,216,14,-44,160,43,-41,250,34,-25,192,51,-43,187,43,-20,222,19,-44,159,45,-41,246,36,-29,204,51,-46,180,44,-14,218,17,-45,169,48,-45,247,39,-21,192,48,-44,174,39,-22,231,21,-47,167,48,-44,239
36.79, 34335.83,50,-45,233,37,-21,203,45,-44,160,36,-22,229,21,-43,176,49,-47,234,39,-20,207,41,-48,161,39,-21,239,22,-43,176,46,-45,233,38,-20,205,33,-41,149,31,-27,243,21,-39,184,48,-43,223,36,-22,213,29,-47,152,34,-28,243,23,-37,182,46,-46,213,34,-20,206,22,-47,155,31,-34,251,27,-41,185,48,-43,212,34,-23,216,19,-50,149,31,-33,247,25,-37,189,47,-47,201,36,-22,210,16,-48,158,31,-40,251,50,-44,193,37,-21,212,14,-51,163,38,-38,250,31,-33,191,46,-46,194,37,-22,216,12,-46,159,40,-43,250,35,-28,191,45,-44,182,39,-23,223,14,-48,166,43,-43,249,35,-28,198,47,-45,177,40,-21,227,18,-46,167,47,-41,242,36,-24,202,47,-47,175,40,-19,226,19,-49,174,48,-44,242,38,-21,195,42,-46,163,36,-23,230,20,-47,178,54,-44,235,41,-20,207,45,-50,169,43,-19,230,19,-44,176,48,-48,232,37,-17,202,40,-46,163,41,-25,236,24,-42,180,52,-48,224,35,-18,207,39,-48,157,40,-24,241,27,-40,183,54,-45,211,33,-17,214,38,-50,159,41,-24,234,26,-38,189,54,-46,208,34,-13,209,32,-46,156,38,-29,244,27,-36,185,50,-44,205,32,-18,224,32,-50,154,41,-29,239,28,-37,190,48,-46,194,34,-23,220,25,-49,155,35,-32,241,28,-38,196,49,-43,193,31,-21,219,20,-49,158
36.81, 34332.50,15,-44,161,34,-36,235,34,-32,207,40,-42,179,31,-21,216,9,-48,169,32,-47,250,34,-29,199,39,-44,171,31,-24,232,15,-51,171,40,-45,243,37,-29,201,40,-48,165,33,-26,230,14,-52,172,42,-47,244,37,-29,208,42,-46,162,34,-25,228,14,-46,180,44,-50,235,42,-21,200,38,-47,159,17,-45,183,43,-47,233,36,-21,212,33,-47,160,39,-21,237,25,-38,182,48,-45,216,37,-17,208,32,-43,159,39,-28,241,32,-37,190,53,-45,213,39,-15,214,30,-46,155,38,-30,238,31,-34,188,52,-47,204,40,-18,213,29,-49,157,40,-33,244,34,-36,192,54,-44,198,41,-20,212,27,-48,157,40,-40,247,38,-36,191,54,-43,191,39,-22,224,28,-47,156,40,-37,243,37,-32,195,52,-42,180,35,-20,221,22,-47,157,37,-37,242,34,-34,204,50,-41,177,34,-15,229,20,-48,163,36,-36,243,34,-32,201,43,-41,166,28,-22,232,19,-49,171,40,-39,242,40,-30,202,41,-41,165,29,-22,235,17,-47,166,39,-44,240,42,-29,209,43,-41,158,33,-21,238,16,-50,173,40,-44,235,39,-28,208,37,-46,164,36,-26,234,21,-43,168,37,-49,234,36,-26,202,27,-45,155,30,-31,247,22,-39,174,40,-46,224,36,-26,211,23,-48,160,33,-29,246,25,-43,180,41,-43,222,33,-24,209,18,-44,157,32,-33,246,26,-34,180,36,-43,216,33,-25,217
36.77, 34335.00,37,-22,222,17,-45,159,41,-37,242,37,-28,196,49,-44,186,44,-24,219,20,-45,167,41,-42,244,38,-29,197,47,-42,180,38,-25,227,22,-44,167,44,-40,236,43,-26,204,38,-22,231,21,-43,166,42,-42,234,40,-25,204,46,-42,170,39,-20,224,22,-42,172,43,-45,238,39,-24,209,41,-44,165,37,-20,236,22,-45,178,47,-44,226,38,-21,209,38,-45,160,36,-22,234,23,-40,178,44,-44,226,40,-20,214,37,-44,156,38,-25,236,26,-38,182,47,-45,220,40,-19,211,31,-45,155,34,-30,240,28,-35,180,47,-45,214,44,-22,218,30,-44,149,38,-31,241,29,-37,189,48,-44,203,42,-26,218,26,-44,154,35,-36,241,30,-35,189,47,-46,194,40,-24,223,21,-48,155,35,-36,244,29,-36,198,45,-47,192,36,-21,216,13,-47,157,31,-42,245,29,-33,196,41,-45,183,35,-22,224,12,-53,166,37,-40,248,34,-30,198,38,-42,179,29,-23,224,11,-47,162,33,-43,247,36,-27,204,41,-44,172,30,-22,227,13,-48,168,34,-43,246,37,-24,204,39,-45,171,34,-20,231,19,-44,176,42,-40,237,37,-22,205,37,-45,173,38,-20,230,24,-42,173,46,-45,237,42,-18,205,40,-43,160,37,-25,235,25,-41,177,48,-44,226,41,-47,158,39,-27,233,23,-42,184,50,-47,220,40,-20,209,36,-50,164,39,-30,234,27,-40,180,51,-50,220,39,-23,216
36.87, 34347.50,35,-18,219,35,-18,219,32,-46,154,36,-29,239,52,-44,198,38,-16,213,28,-44,155,35,-34,247,34,-34,196,49,-41,191,32,-19,226,25,-47,155,34,-33,241,33,-34,196,47,-40,184,35,-20,225,21,-49,157,31,-33,248,34,-38,200,44,-41,182,29,-20,228,17,-49,151,30,-34,241,34,-36,199,41,-40,176,31,-20,228,18,-51,161,33,-37,246,37,-34,203,37,-43,171,29,-21,233,16,-49,163,37,-41,244,40,-32,201,39,-41,162,30,-23,230,14,-48,171,36,-44,242,40,-28,204,38,-46,167,34,-24,239,17,-49,167,38,-43,235,36,-29,204,35,-45,159,34,-27,236,17,-47,177,41,-47,233,40,-23,213,36,-49,163,34,-25,236,19,-45,176,41,-48,231,37,-22,209,34,-46,152,35,-29,236,22,-39,185,45,-48,221,39,-17,209,31,-48,156,36,-28,246,31,-38,187,50,-42,211,36,-18,220,30,-46,152,35,-28,235,28,-36,196,54,-46,206,45,-11,210,27,-48,156,36,-32,250,30,-34,193,49,-44,199,36,-19,220,24,-45,150,39,-36,245,36,-34,198,53,-42,187,39,-14,225,26,-50,162,37,-32,196,49,-41,182,35,-19,225,25,-46,158,41,-38,242,39,-29,201,49,-40,172,34,-20,229,24,-47,168,42,-38,243,39,-32,203,47,-42,169,30,-20,227,15,-48,165,33,-42,241,38,-32,201,41,-44,168,34,-21,239,21,-51,165,40,-39,240
36.85, 34331.66,41,-46,229,37,-28,208,34,-47,156,32,-28,237,20,-41,174,42,-48,228,42,-27,213,33,-48,160,36,-32,243,21,-41,174,37,-49,219,34,-29,213,26,-45,151,31,-34,240,22,-41,184,39,-50,220,34,-23,215,19,-52,160,30,-30,251,28,-40,184,44,-41,211,34,-22,212,21,-42,156,32,-32,243,29,-35,192,41,-43,211,33,-22,217,20,-41,159,31,-35,245,37,-29,192,48,-42,197,39,-17,215,22,-45,159,38,-33,245,36,-31,195,46,-41,197,41,-16,220,21,-44,159,39,-36,246,36,-27,197,47,-40,191,37,-22,224,21,-41,159,39,-39,244,40,-29,202,48,-39,174,35,-20,220,16,-47,171,37,-43,243,40,-33,204,46,-47,182,38,-21,230,19,-51,160,41,-44,249,43,-28,198,49,-41,165,37,-22,230,21,-46,164,42,-44,244,43,-28,210,46,-39,157,35,-24,228,18,-47,175,42,-46,234,42,-25,200,41,-45,158,34,-26,246,22,-50,175,47,-44,231,42,-31,218,38,-44,156,14,-42,175,40,-51,232,40,-22,199,34,-44,152,28,-30,247,23,-43,176,42,-46,226,37,-25,212,28,-50,154,33,-28,250,23,-44,176,42,-46,220,36,-24,213,24,-48,151,29,-33,243,19,-39,183,43,-48,213,36,-20,205,19,-50,153,29,-34,253,22,-38,181,40,-45,212,32,-21,218,18,-49,152,29,-30,248,27,-37,194,42,-43,201,33,-19,214,13,-49,161
36.73, 34314.16,16,-48,160,40,-38,247,38,-28,192,45,-43,182,38,-23,225,15,-45,163,40,-39,246,39,-30,199,46,-45,184,40,-21,223,16,-45,157,42,-43,245,43,-25,198,49,-44,169,45,-20,230,20,-50,173,47,-45,241,41,-29,203,43,-46,171,37,-26,230,20,-45,167,49,-47,234,46,-25,204,47,-44,160,39,-22,231,19,-51,180,50,-45,232,40,-21,208,45,-49,164,41,-21,231,23,-44,182,50,-48,231,41,-20,206,37,-45,154,31,-26,237,21,-41,180,52,-45,224,43,-17,210,36,-47,152,34,-23,239,21,-45,190,47,-46,221,34,-19,211,28,-46,152,31,-30,241,25,-36,183,44,-47,205,32,-19,218,21,-51,159,32,-26,246,28,-41,188,46,-45,208,35,-19,214,17,-50,150,27,-32,243,26,-36,195,47,-46,202,40,-18,215,20,-48,153,33,-37,252,31,-31,192,37,-22,215,14,-45,155,33,-41,254,33,-33,196,45,-44,182,34,-23,228,16,-49,162,34,-39,246,35,-33,200,46,-45,177,36,-24,225,13,-49,164,35,-43,244,37,-30,201,44,-45,173,38,-23,220,14,-49,169,42,-46,244,39,-23,203,44,-50,171,41,-20,230,16,-50,172,46,-47,240,39,-23,200,41,-48,167,36,-27,228,15,-49,176,41,-49,233,37,-26,204,37,-50,168,40,-22,232,21,-48,178,45,-41,233,41,-24,215,40,-45,162,37,-18,231,25,-39,177,45,-45,229,41,-14,207
36.71, 34329.16,35,-19,223,28,-40,155,29,-27,234,31,-34,190,40,-42,209,37,-19,220,28,-43,153,31,-28,241,31,-38,196,44,-45,201,33,-21,219,22,-48,151,32,-35,238,31,-36,191,47,-48,193,36,-25,221,21,-50,157,30,-39,244,30,-40,195,44,-42,189,36,-29,228,23,-45,149,26,-36,238,32,-39,203,43,-42,185,36,-20,232,18,-51,157,30,-36,246,32,-35,203,42,-43,176,34,-23,220,11,-47,156,30,-43,243,35,-33,207,40,-46,172,41,-22,237,11,-50,160,32,-42,242,32,-33,206,35,-43,164,35,-25,228,12,-46,164,34,-45,238,41,-28,219,33,-45,163,33,-22,236,15,-50,174,34,-43,239,38,-23,209,31,-44,157,30,-24,235,35,-44,232,38,-21,217,28,-44,158,34,-19,240,22,-46,179,39,-40,233,41,-21,214,28,-42,155,32,-22,238,23,-40,181,42,-41,221,42,-18,210,31,-43,151,37,-24,242,29,-43,193,50,-42,212,37,-14,215,31,-50,159,41,-28,237,32,-33,189,52,-47,208,41,-21,210,26,-44,149,31,-41,244,25,-37,193,47,-51,197,39,-23,222,22,-52,153,34,-36,246,26,-43,197,44,-50,199,39,-24,226,24,-52,153,39,-37,244,31,-37,196,50,-47,185,38,-24,220,23,-48,151,36,-41,238,36,-34,196,52,-42,177,45,-22,232,28,-49,158,36,-37,240,36,-34,206,48,-38,171,38,-19,229,28,-45,163,38,-36,233
36.87, 34317.50,31,-35,241,39,-37,215,25,-36,162,15,-28,234,12,-45,172,24,-44,232,39,-29,210,23,-39,158,16,-35,236,15,-45,173,23,-48,236,40,-32,217,28,-45,153,30,-29,237,19,-45,175,37,-50,232,42,-28,205,30,-46,154,35,-35,246,24,-44,174,45,-48,222,49,-31,210,35,-41,151,38,-39,238,26,-39,182,44,-50,222,50,-24,213,30,-44,149,36,-37,247,26,-37,181,46,-44,210,45,-23,221,26,-44,151,37,-32,241,29,-35,191,45,-45,208,41,-18,214,21,-42,151,35,-36,246,32,-30,193,45,-42,195,42,-19,223,37,-35,245,37,-31,195,41,-42,190,40,-20,226,20,-43,156,40,-34,241,42,-28,194,46,-41,185,38,-20,227,19,-45,155,39,-36,246,38,-30,202,46,-41,173,37,-20,232,22,-47,164,44,-38,240,43,-30,204,46,-45,168,36,-19,228,14,-48,163,37,-45,247,38,-30,204,42,-44,161,33,-23,234,16,-48,164,37,-47,239,41,-31,211,42,-45,156,34,-20,238,17,-53,174,39,-44,235,35,-26,205,34,-46,159,27,-26,236,16,-42,170,32,-47,234,33,-29,209,22,-46,152,21,-26,251,19,-50,175,37,-41,227,33,-27,216,25,-49,152,25,-24,239,14,-42,179,32,-47,224,33,-22,214,20,-45,147,25,-28,238,18,-38,179,36,-48,224,41,-19,216,23,-45,149,33,-30,253,26,-38,182,37,-45,212,34,-23,216,12,-44,148
36.81, 34340.00,10,-50,156,33,-38,254,35,-37,195,44,-47,197,43,-21,220,15,-49,157,44,-39,247,44,-27,187,51,-41,181,50,-22,222,22,-43,161,49,-40,242,42,-23,197,46,-44,177,48,-19,223,20,-42,162,45,-43,239,42,-23,205,47,-48,173,47,-16,229,16,-48,169,43,-43,238,32,-24,207,34,-48,170,35,-18,223,10,-47,173,41,-46,238,33,-22,206,31,-49,167,32,-16,234,15,-51,177,43,-42,240,34,-45,162,35,-19,226,15,-41,176,41,-47,233,41,-18,209,33,-44,154,38,-23,239,24,-40,183,44,-47,224,44,-16,212,29,-43,148,35,-31,244,22,-35,180,43,-48,209,37,-19,215,23,-49,149,32,-35,246,22,-39,184,39,-50,207,35,-25,224,17,-51,151,28,-32,247,21,-42,192,36,-48,202,31,-23,218,11,-50,151,28,-35,243,23,-37,192,38,-47,195,31,-19,221,8,-53,157,28,-30,251,22,-35,195,32,-45,194,28,-16,221,7,-48,154,29,-36,244,27,-26,196,30,-44,186,30,-16,229,11,-50,164,33,-38,252,36,-28,203,31,-43,175,30,-22,225,12,-43,162,39,-44,242,41,-22,199,40,-45,166,39,-22,236,19,-52,176,44,-43,239,40,-27,203,37,-48,167,38,-28,226,17,-44,170,46,-53,232,47,-20,207,37,-48,158,40,-29,236,16,-51,181,43,-50,231,41,-25,211,35,-46,152,36,-31,235,22,-42,189,49,-48,222,47,-15,211
36.73, 34329.16,37,-11,226,25,-50,154,40,-25,239,29,-30,190,47,-45,198,37,-13,217,20,-44,151,31,-27,249,32,-33,200,43,-40,191,31,-15,232,16,-50,153,27,-25,239,26,-35,205,44,-46,186,32,-14,224,15,-53,159,32,-34,244,28,-34,198,38,-47,181,26,-21,231,15,-51,157,32,-34,202,42,-47,173,33,-21,230,15,-54,165,31,-41,243,32,-34,204,37,-46,169,29,-22,231,13,-50,160,30,-43,244,32,-33,209,31,-47,163,26,-22,236,8,-50,166,29,-45,242,32,-28,203,30,-46,160,29,-19,239,10,-51,164,26,-44,243,30,-31,223,29,-49,157,29,-16,243,16,-48,171,33,-43,233,33,-23,210,23,-45,148,24,-26,243,18,-43,182,37,-43,228,37,-20,218,24,-52,153,31,-20,246,21,-44,175,37,-46,223,40,-21,218,27,-43,144,35,-29,242,26,-39,189,43,-46,213,42,-18,216,23,-50,152,36,-30,248,28,-36,188,44,-46,205,39,-17,217,22,-48,150,37,-33,249,31,-33,191,46,-45,193,37,-20,222,16,-50,154,36,-35,251,32,-34,193,47,-45,188,36,-17,222,16,-49,157,35,-36,249,34,-31,195,46,-45,186,38,-15,235,20,-50,151,36,-38,246,36,-32,206,48,-44,166,38,-16,227,19,-51,161,37,-40,247,39,-32,209,44,-44,169,35,-14,232,16,-51,165,37,-41,244,37,-27,202,38,-45,160,30,-18,241,14,-52,166,34,-30,216
36.89, 34308.33,36,-43,228,32,-23,214,25,-48,151,29,-22,242,17,-42,177,35,-47,226,33,-19,212,19,-50,148,26,-28,250,22,-41,179,38,-44,215,37,-23,213,15,-47,146,23,-41,188,40,-47,210,35,-20,221,14,-51,149,27,-33,248,24,-36,190,40,-49,196,34,-20,212,13,-52,159,34,-37,249,30,-36,186,40,-48,201,36,-22,226,13,-51,146,32,-39,252,31,-34,200,43,-43,179,39,-17,218,12,-53,164,37,-36,251,38,-28,199,41,-46,182,39,-16,225,14,-49,163,44,-39,245,39,-21,196,43,-44,175,39,-19,228,16,-46,167,43,-39,246,41,-25,205,42,-46,168,38,-16,228,14,-47,168,42,-45,242,42,-21,206,42,-45,163,42,-17,233,19,-51,180,46,-45,233,38,-21,209,37,-50,161,37,-22,231,20,-45,178,48,-48,229,40,-19,213,36,-48,153,39,-22,236,16,-47,187,47,-50,221,38,-16,212,32,-49,153,36,-24,234,22,-40,187,48,-49,215,37,-13,218,25,-50,153,33,-24,242,22,-38,189,45,-48,203,31,-16,219,21,-49,150,28,-28,241,24,-37,197,42,-47,199,27,-15,222,18,-51,150,31,-31,245,27,-39,198,43,-44,185,27,-15,223,13,-55,157,27,-30,246,27,-37,205,40,-49,184,27,-17,224,11,-54,156,31,-33,198,39,-46,176,28,-19,229,11,-54,164,31,-39,249,34,-32,204,36,-47,168,27,-18,233,10,-53,163,32,-41,239
36.95, 34302.50,35,-46,232,35,-46,232,33,-24,213,30,-52,160,22,-47,177,44,-45,231,36,-20,211,30,-46,149,26,-26,236,20,-44,187,46,-46,219,40,-16,216,29,-54,156,36,-23,241,25,-43,187,46,-45,216,38,-16,209,26,-47,151,38,-29,244,30,-34,187,49,-46,206,41,-17,218,23,-48,152,37,-33,250,31,-35,192,50,-43,189,35,-16,222,20,-49,157,39,-33,248,35,-33,198,46,-43,187,33,-15,227,16,-52,157,35,-34,246,32,-33,201,49,-44,179,34,-12,221,15,-50,161,35,-39,248,34,-32,204,45,-45,171,32,-15,233,15,-54,165,34,-39,243,32,-30,201,40,-44,165,25,-20,232,16,-53,169,37,-41,241,36,-30,210,38,-46,162,29,-17,235,14,-52,171,35,-44,240,36,-27,212,36,-45,149,25,-21,234,13,-51,178,36,-49,234,33,-25,206,27,-50,158,27,-22,242,19,-46,172,34,-45,230,33,-24,211,22,-47,146,24,-26,246,20,-43,181,36,-44,220,35,-23,209,15,-49,150,23,-27,250,24,-43,179,38,-44,217,34,-23,216,13,-50,147,23,-33,251,25,-38,188,40,-45,206,37,-21,217,32,-33,250,29,-35,189,40,-44,198,37,-19,215,13,-51,157,37,-36,251,36,-34,190,42,-46,197,39,-19,221,15,-49,154,40,-39,251,37,-30,194,43,-43,181,41,-22,222,17,-50,165,42,-39,244,38,-27,197,39,-47,183,39,-18,223,13,-49,162
36.73, 34307.50,17,-42,169,45,-47,235,43,-21,206,38,-47,161,40,-17,239,20,-52,186,44,-44,228,35,-20,215,31,-49,159,38,-22,228,20,-39,177,46,-47,220,37,-16,209,28,-47,153,33,-24,244,24,-46,191,50,-46,214,34,-14,215,26,-51,150,29,-26,240,24,-39,187,48,-45,206,35,-15,220,26,-50,151,31,-26,243,23,-41,195,44,-47,197,28,-14,218,18,-51,151,28,-32,243,27,-36,194,41,-46,194,32,-16,227,16,-55,150,29,-29,247,26,-39,199,41,-47,182,30,-15,221,11,-52,155,26,-38,248,28,-34,202,40,-46,176,27,-18,226,9,-56,165,34,-37,247,34,-32,202,39,-47,173,27,-17,223,6,-53,164,28,-43,246,32,-31,207,38,-50,168,31,-20,228,10,-52,166,33,-45,243,36,-26,204,36,-46,161,32,-22,235,15,-50,172,39,-44,243,38,-24,214,37,-51,158,35,-18,234,16,-45,178,42,-47,231,40,-20,203,29,-47,158,34,-22,239,22,-45,179,43,-44,232,32,-49,155,39,-22,239,26,-39,178,47,-47,216,38,-16,210,27,-45,149,38,-29,245,30,-40,193,51,-44,211,40,-15,222,24,-53,151,33,-28,244,25,-38,195,49,-46,195,39,-14,213,22,-49,157,35,-31,249,30,-37,193,48,-44,196,31,-18,228,19,-52,152,33,-34,246,29,-34,196,45,-44,176,30,-18,226,19,-52,158,35,-33,248,34,-37,210,47,-45,179,29,-11,233
36.87, 34303.33,27,-13,236,14,-55,168,32,-41,233,27,-25,206,29,-50,163,23,-15,235,15,-51,170,34,-43,244,32,-27,206,28,-47,158,22,-24,239,14,-46,162,27,-46,240,35,-31,214,28,-48,147,28,-22,248,21,-52,181,38,-44,229,39,-28,208,20,-50,150,24,-33,243,18,-42,172,34,-49,226,39,-27,212,22,-50,147,30,-30,257,24,-45,185,40,-42,210,35,-23,217,20,-48,151,32,-31,246,27,-33,187,39,-45,206,39,-19,219,18,-48,155,38,-29,249,33,-34,188,43,-44,202,39,-18,218,16,-46,150,38,-36,248,35,-30,191,46,-44,193,41,-16,220,14,-48,157,39,-36,252,37,-29,194,45,-44,183,38,-17,222,14,-48,161,40,-38,245,38,-29,203,44,-46,181,38,-16,224,13,-51,162,41,-44,247,41,-28,206,48,-46,171,42,-19,223,14,-51,171,36,-24,205,43,-48,165,37,-20,233,18,-47,171,44,-46,238,39,-21,208,40,-47,159,38,-17,235,18,-48,176,43,-46,235,37,-20,211,36,-47,157,36,-16,238,22,-44,174,42,-43,231,34,-19,208,28,-44,149,25,-25,242,19,-45,180,39,-47,222,34,-20,216,26,-52,154,31,-20,247,24,-45,181,40,-46,218,33,-19,216,19,-52,147,26,-28,243,21,-40,185,42,-49,210,37,-21,210,18,-51,150,28,-33,251,24,-40,189,40,-46,202,33,-19,215,11,-53,155,30,-34,252,29,-35,189,43,-46,197
36.81, 34291.66,42,-46,180,34,-15,220,9,-54,168,36,-39,251,37,-28,194,36,-47,185,33,-20,228,9,-49,154,30,-42,254,36,-31,204,41,-43,164,36,-17,226,15,-54,176,41,-40,239,37,-23,204,37,-50,174,37,-17,230,18,-49,171,43,-44,241,40,-20,206,38,-47,158,38,-22,230,18,-46,182,48,-46,233,42,-18,204,37,-51,162,36,-21,236,21,-45,178,46,-49,228,39,-15,209,36,-49,155,40,-21,238,23,-44,183,47,-47,220,35,-17,215,30,-49,152,33,-25,238,23,-42,188,49,-48,213,35,-13,218,29,-53,155,34,-22,240,24,-40,192,46,-48,208,31,-15,217,22,-50,151,30,-28,241,22,-38,196,45,-45,197,32,-13,221,18,-54,158,26,-34,194,45,-47,193,31,-16,219,15,-49,152,26,-36,245,26,-36,200,41,-46,186,34,-16,225,15,-55,157,30,-37,252,31,-36,199,41,-48,177,29,-20,230,13,-52,158,28,-38,245,30,-34,202,37,-47,172,30,-18,231,13,-55,164,32,-41,245,34,-32,207,37,-48,162,27,-21,230,8,-53,166,29,-45,243,32,-29,210,35,-50,163,28,-21,236,11,-54,173,33,-45,241,34,-27,210,32,-47,157,26,-22,232,15,-47,178,37,-48,231,33,-20,206,25,-51,156,28,-18,245,20,-47,182,43,-45,230,38,-18,212,29,-47,150,30,-26,236,22,-40,181,41,-47,220,36,-19,212,24,-50,154,32,-27,249,27,-42,188
36.81, 34295.00,31,-38,195,48,-42,188,36,-19,225,22,-50,152,35,-36,244,35,-35,203,50,-46,183,39,-14,222,17,-53,161,37,-37,252,36,-29,196,45,-43,172,30,-18,228,14,-48,160,33,-38,247,35,-32,210,45,-44,172,30,-13,235,16,-55,165,33,-38,245,33,-29,211,36,-45,163,26,-17,226,11,-51,167,32,-46,247,39,-27,208,38,-46,158,30,-22,242,15,-54,170,37,-44,237,37,-30,209,34,-46,151,26,-23,238,17,-49,176,36,-48,234,40,-24,215,32,-49,150,30,-26,245,16,-46,177,35,-46,218,34,-24,207,27,-31,246,23,-41,183,39,-46,217,36,-19,218,19,-52,150,29,-26,250,21,-38,182,34,-45,206,29,-19,212,11,-47,152,29,-34,249,30,-37,188,37,-43,205,35,-17,224,11,-55,153,29,-31,253,30,-36,189,37,-45,196,36,-22,220,12,-46,153,31,-36,247,35,-35,199,40,-44,188,40,-19,223,11,-51,160,35,-40,252,38,-29,194,43,-46,176,41,-24,222,14,-48,162,39,-44,246,39,-30,206,43,-46,168,41,-18,231,18,-52,173,46,-46,238,40,-21,202,39,-48,163,38,-23,226,18,-47,177,48,-46,238,42,-19,207,36,-49,164,39,-17,235,19,-48,182,49,-45,229,37,-14,205,34,-47,152,33,-23,236,22,-42,189,48,-47,219,36,-14,217,28,-52,158,35,-20,239,26,-43,189,47,-46,211,31,-13,212,23,-49,154,33,-29,241
36.97, 34277.50,28,-32,243,27,-42,201,46,-46,182,32,-16,228,18,-58,160,30,-32,247,30,-37,200,41,-46,179,25,-15,230,12,-53,153,26,-38,243,31,-35,205,39,-44,165,27,-14,231,11,-56,164,28,-39,248,32,-32,209,35,-47,159,24,-18,232,10,-54,164,28,-43,247,36,-31,210,34,-47,157,29,-17,240,13,-52,171,30,-43,238,31,-27,208,27,-49,156,25,-23,235,17,-45,171,35,-49,237,29,-47,153,29,-22,247,21,-49,177,38,-43,227,36,-22,214,26,-49,146,27,-29,238,22,-40,180,43,-47,221,42,-20,208,24,-49,147,29,-31,252,25,-42,188,46,-45,212,39,-18,219,21,-52,148,30,-31,243,23,-36,188,45,-46,199,40,-18,217,22,-47,149,35,-35,250,31,-36,201,49,-44,192,40,-13,221,17,-52,157,36,-35,246,31,-29,196,49,-45,185,36,-14,221,16,-50,154,37,-36,256,37,-33,211,49,-44,172,32,-10,225,12,-53,162,31,-39,246,33,-29,200,46,-44,167,33,-15,233,19,-57,165,37,-38,250,37,-32,214,40,-47,163,26,-16,233,12,-53,165,36,-45,238,40,-27,207,42,-45,155,32,-16,235,14,-55,174,34,-45,245,34,-27,215,35,-48,151,29,-20,241,15,-47,173,38,-47,222,33,-24,212,27,-49,151,28,-20,243,21,-52,181,39,-47,228,32,-23,212,21,-54,149,24,-27,241,19,-42,179,40,-47,219,35,-21,211,21,-47,146
36.93, 34250.00,13,-52,152,31,-33,254,32,-39,190,41,-45,198,33,-21,218,11,-51,153,32,-40,252,33,-34,191,46,-43,183,37,-22,225,13,-53,164,37,-37,248,36,-33,200,40,-46,184,37,-17,223,12,-50,164,40,-43,249,39,-26,198,45,-44,174,40,-18,225,14,-50,166,39,-27,201,43,-46,172,41,-18,224,16,-50,170,44,-45,243,39,-24,207,42,-47,164,37,-19,230,16,-51,178,48,-44,232,41,-18,207,42,-49,162,36,-19,225,14,-46,183,47,-50,236,40,-17,211,38,-51,161,35,-19,236,16,-45,183,47,-48,225,37,-15,207,33,-47,153,35,-25,237,20,-43,186,49,-48,221,36,-18,215,28,-51,152,30,-25,238,18,-40,186,49,-49,208,35,-15,216,25,-48,151,32,-23,240,21,-44,193,41,-48,212,31,-13,226,16,-53,147,28,-27,240,22,-35,191,42,-48,195,29,-16,215,15,-51,153,30,-31,254,29,-39,198,44,-44,190,28,-15,224,11,-56,148,28,-34,244,29,-33,198,46,-46,180,34,-17,222,12,-54,161,28,-36,252,30,-38,206,40,-44,177,31,-18,220,9,-53,162,29,-43,247,34,-31,203,41,-48,174,33,-19,228,11,-55,165,35,-45,248,34,-29,206,40,-45,162,30,-22,226,12,-52,173,35,-45,240,37,-26,204,37,-49,168,36,-18,231,16,-51,169,38,-46,245,37,-21,206,35,-47,158,32,-23,234,41,-44,237,39,-21,210,35,-48,154
36.89, 34235.83,38,-14,214,32,-49,153,35,-24,244,27,-41,186,48,-45,208,33,-15,216,25,-51,151,32,-29,244,29,-39,192,51,-43,201,38,-13,218,35,-29,245,29,-38,194,48,-47,195,32,-15,218,20,-49,146,31,-32,246,27,-37,201,49,-44,187,35,-14,230,20,-55,159,32,-28,245,25,-36,199,42,-47,182,26,-14,224,18,-51,153,31,-35,246,29,-35,202,41,-45,174,28,-13,236,19,-61,163,36,-33,245,32,-30,206,41,-45,166,24,-16,223,11,-52,168,30,-41,245,31,-31,206,36,-46,166,25,-16,237,13,-56,166,31,-41,247,31,-29,205,34,-48,154,19,-23,233,11,-54,170,29,-44,239,34,-32,210,29,-50,160,25,-20,240,14,-53,172,31,-46,239,34,-25,206,28,-46,150,24,-25,236,14,-45,171,31,-48,239,37,-27,220,29,-48,149,31,-20,246,22,-46,178,37,-45,221,34,-21,210,23,-47,148,31,-29,242,26,-42,181,40,-45,222,40,-20,219,22,-49,146,31,-28,250,27,-40,183,45,-45,210,41,-19,217,21,-46,144,27,-32,246,25,-42,195,43,-45,204,38,-16,226,19,-55,151,32,-31,248,27,-37,191,43,-47,190,35,-18,224,19,-49,152,37,-35,249,36,-36,204,49,-45,184,16,-52,158,37,-38,250,36,-28,196,47,-43,175,36,-17,226,17,-47,158,36,-40,252,39,-32,211,44,-43,165,34,-15,237,16,-53,168,38,-39,240,36,-27,206
36.97, 34238.33,39,-25,205,32,-45,149,28,-24,243,18,-51,178,35,-45,232,37,-23,218,26,-50,148,27,-24,244,18,-44,179,38,-48,217,39,-21,208,23,-44,147,30,-30,247,27,-40,187,39,-46,206,36,-18,221,17,-53,155,35,-31,248,29,-35,187,40,-45,196,34,-22,211,9,-47,153,26,-39,250,31,-36,195,40,-45,187,36,-20,228,10,-55,159,30,-36,249,31,-35,200,38,-47,181,34,-18,225,13,-50,162,33,-41,249,35,-29,204,36,-45,172,34,-19,229,14,-52,168,38,-42,244,38,-25,203,34,-47,166,33,-20,232,17,-49,172,41,-45,243,41,-24,209,33,-48,157,33,-22,233,18,-48,179,43,-48,230,42,-19,207,33,-48,154,37,-24,237,18,-48,181,43,-48,231,40,-18,214,32,-50,151,37,-27,243,26,-41,186,48,-47,207,38,-17,214,25,-49,150,33,-28,241,26,-40,193,47,-45,206,38,-13,223,23,-52,153,35,-26,249,30,-38,200,47,-45,191,31,-13,218,17,-49,154,31,-36,250,33,-37,199,45,-44,184,27,-19,232,17,-57,157,32,-33,247,30,-35,209,27,-17,226,13,-54,164,33,-39,245,39,-33,205,42,-47,165,28,-13,237,14,-59,168,33,-40,245,34,-29,206,35,-46,151,21,-23,233,11,-50,170,33,-46,241,38,-28,212,31,-48,152,24,-18,249,17,-57,177,34,-41,232,33,-24,210,25,-48,147,21,-28,239,17,-44,174,34,-46,229
37.03, 34230.00,37,-46,213,39,-24,218,14,-52,151,31,-32,255,29,-42,187,38,-44,201,35,-23,215,15,-46,149,33,-39,251,33,-34,193,45,-44,188,39,-21,217,12,-54,165,37,-36,255,39,-33,195,44,-46,187,37,-20,220,11,-50,158,37,-42,250,40,-27,196,46,-42,174,43,-16,227,18,-52,169,43,-38,246,39,-26,203,40,-47,169,34,-20,227,13,-48,170,44,-42,238,43,-22,207,42,-46,164,40,-13,229,19,-53,183,47,-44,237,36,-19,206,34,-50,159,30,-23,232,17,-46,182,46,-48,228,39,-19,214,35,-50,153,37,-19,236,22,-51,190,47,-46,221,36,-16,211,29,-50,150,33,-28,235,21,-42,191,47,-48,208,35,-14,216,23,-54,160,34,-22,241,27,-42,194,47,-47,207,34,-16,213,15,-50,145,23,-33,248,24,-39,197,46,-45,191,33,-17,224,19,-54,150,27,-27,248,28,-39,202,42,-43,185,27,-13,226,10,-56,152,24,-32,247,40,-45,178,28,-18,221,11,-52,157,25,-40,250,32,-33,205,39,-46,166,27,-19,232,12,-57,169,32,-40,244,33,-32,204,32,-46,165,25,-24,228,9,-52,166,35,-47,244,39,-30,207,36,-47,160,29,-22,236,11,-56,176,34,-47,241,35,-25,209,32,-50,156,28,-25,231,12,-47,177,35,-49,236,37,-22,212,30,-48,149,30,-22,248,22,-47,187,45,-43,220,35,-17,212,24,-49,153,30,-25,241,24,-40,181
37.27, 34216.66,34,-32,194,48,-43,192,37,-16,217,15,-51,154,32,-35,251,35,-35,195,49,-44,187,37,-17,223,18,-52,154,32,-37,254,33,-37,200,45,-43,176,33,-17,232,17,-54,156,34,-38,245,34,-34,208,43,-46,168,31,-17,228,14,-54,166,32,-40,247,35,-32,206,38,-47,162,28,-16,237,15,-54,166,37,-41,241,36,-26,214,39,-47,159,29,-15,234,14,-52,175,33,-43,243,35,-25,204,31,-46,152,25,-21,240,15,-46,167,33,-44,234,35,-24,218,31,-48,148,29,-18,247,18,-52,182,36,-43,223,30,-19,211,21,-51,147,25,-29,242,19,-39,179,34,-47,221,34,-22,216,18,-53,147,29,-28,252,23,-45,187,38,-47,208,33,-21,211,13,-51,153,28,-35,251,26,-39,186,37,-48,206,34,-21,218,12,-49,147,28,-37,191,42,-46,190,36,-19,223,13,-52,156,35,-35,251,34,-35,196,40,-46,183,35,-16,219,10,-51,159,36,-39,250,38,-30,198,42,-46,183,41,-15,228,15,-50,159,38,-39,248,37,-27,204,42,-46,174,40,-15,223,13,-48,164,38,-43,242,37,-25,205,40,-49,170,40,-15,235,19,-52,171,45,-41,238,36,-20,207,38,-49,160,38,-20,224,18,-46,185,48,-47,231,37,-18,207,34,-55,166,37,-18,238,18,-47,179,48,-48,228,39,-18,214,36,-47,151,36,-23,235,18,-44,189,48,-49,217,38,-15,217,31,-53,153,35,-24,241
37.19, 34207.50,31,-27,242,23,-38,192,38,-48,192,26,-15,224,14,-52,149,26,-30,251,29,-39,205,41,-44,185,27,-12,232,14,-56,153,27,-33,243,27,-32,199,36,-43,173,25,-16,230,14,-56,162,30,-34,247,34,-36,211,33,-47,170,25,-19,231,11,-53,163,34,-43,244,37,-29,199,35,-44,157,27,-21,235,12,-56,171,32,-43,245,35,-32,213,30,-51,157,28,-18,236,12,-53,173,33,-47,235,36,-23,205,29,-44,152,30,-26,240,17,-48,176,35,-48,232,32,-25,218,24,-52,150,28,-25,239,20,-47,185,43,-45,218,38,-16,212,27,-49,150,32,-25,245,25,-40,188,42,-46,211,36,-16,214,31,-32,246,27,-36,189,47,-46,200,38,-15,222,22,-52,153,36,-28,251,33,-39,198,44,-44,193,33,-16,219,16,-49,152,34,-37,249,33,-32,197,45,-45,179,33,-17,229,15,-55,159,35,-36,249,35,-36,203,45,-45,176,32,-17,229,16,-52,159,37,-41,247,39,-29,204,43,-46,160,33,-15,236,18,-58,173,40,-39,240,36,-28,210,38,-49,160,28,-16,233,13,-51,172,36,-45,239,34,-23,208,34,-49,155,31,-17,240,15,-51,176,37,-47,237,38,-23,209,28,-48,147,24,-24,241,14,-48,173,33,-46,227,34,-22,211,23,-49,146,28,-23,251,20,-46,182,39,-44,218,33,-20,214,19,-49,147,26,-31,246,21,-38,184,39,-47,207,35,-18,213,16,-53,153
37.41, 34195.00,15,-56,156,34,-33,254,30,-36,201,39,-46,183,31,-19,219,7,-48,157,32,-43,246,36,-28,195,43,-45,179,41,-19,232,15,-55,160,37,-39,251,35,-32,212,40,-48,173,39,-15,221,12,-47,165,39,-46,243,40,-22,199,37,-46,166,40,-21,234,19,-52,177,44,-42,237,39,-23,206,37,-52,167,38,-21,229,18,-46,170,44,-48,228,41,-18,212,36,-49,156,43,-19,236,22,-47,188,49,-47,228,39,-17,210,30,-51,154,33,-26,232,17,-40,182,45,-52,218,32,-50,156,40,-21,245,28,-46,190,46,-47,211,28,-16,218,20,-51,151,29,-31,240,25,-36,188,48,-46,195,33,-17,221,23,-53,154,29,-28,246,26,-45,198,46,-47,196,29,-16,227,18,-56,151,29,-28,237,24,-36,200,39,-49,190,26,-15,225,16,-53,157,30,-35,250,31,-38,195,42,-43,174,27,-20,225,12,-52,156,29,-37,243,33,-34,205,40,-46,176,27,-15,235,12,-58,160,30,-35,251,33,-33,207,39,-42,161,25,-21,222,7,-49,164,28,-45,241,34,-31,207,36,-49,166,29,-17,240,12,-58,166,30,-41,248,32,-29,210,31,-47,154,26,-22,236,13,-48,172,37,-46,231,37,-27,213,31,-50,158,32,-20,235,15,-52,176,38,-48,238,38,-19,205,31,-47,152,31,-26,239,19,-45,178,41,-49,228,37,-20,216,28,-53,153,35,-20,243,22,-45,183,44,-45,221,40,-18,211
37.13, 34188.33,32,-13,215,22,-50,149,34,-33,244,30,-34,190,48,-45,195,33,-15,224,19,-55,155,36,-30,250,30,-37,200,49,-44,189,33,-14,223,20,-51,153,35,-32,240,31,-34,200,46,-48,184,33,-13,229,18,-55,156,34,-34,252,31,-33,202,46,-45,173,27,-15,227,15,-51,154,29,-40,249,30,-35,210,43,-43,165,28,-14,238,16,-58,163,32,-34,207,37,-46,159,21,-20,233,11,-55,165,29,-43,239,32,-35,210,36,-49,161,25,-15,237,12,-57,169,32,-43,246,31,-28,204,34,-47,155,25,-22,237,12,-51,169,28,-46,241,33,-30,214,30,-51,158,27,-20,244,16,-52,167,33,-45,234,32,-27,210,25,-47,149,24,-24,243,18,-46,174,34,-45,233,36,-25,216,25,-48,151,26,-25,242,19,-45,173,35,-45,229,38,-23,213,24,-47,150,31,-26,247,23,-46,181,38,-46,224,35,-24,218,19,-47,145,29,-34,245,20,-39,184,43,-46,208,37,-21,220,24,-54,154,35,-27,248,24,-42,191,43,-48,208,34,-17,216,18,-47,144,30,-35,248,26,-37,191,49,-45,194,38,-15,224,22,-54,152,35,-30,252,30,-36,198,49,-45,191,37,-15,218,17,-47,149,31,-34,249,31,-34,197,48,-43,188,38,-14,229,19,-52,154,36,-36,251,31,-33,201,44,-43,175,31,-15,227,14,-51,158,36,-36,251,37,-33,204,44,-45,172,29,-14,237,11,-56,162,35,-37,243
37.09, 34185.00,32,-42,239,31,-27,206,36,-47,155,26,-19,239,17,-54,171,35,-43,242,36,-28,212,34,-49,151,23,-21,237,12,-50,170,34,-48,233,35,-27,205,32,-49,153,26,-22,247,17,-52,173,31,-45,236,31,-27,214,23,-29,239,14,-42,177,35,-48,225,37,-23,210,22,-50,152,25,-23,249,18,-48,179,35,-45,226,36,-20,213,22,-47,143,26,-30,243,20,-38,180,35,-45,212,36,-22,219,19,-50,149,31,-26,252,27,-40,185,40,-44,203,36,-18,213,14,-51,151,31,-33,250,30,-36,190,45,-45,204,39,-18,223,16,-51,150,32,-33,249,30,-32,193,43,-45,192,39,-17,212,14,-47,156,36,-39,256,38,-32,199,48,-44,184,37,-17,227,14,-52,153,36,-37,245,36,-31,203,48,-46,175,42,-18,218,15,-51,164,38,-42,250,39,-30,203,45,-48,173,35,-17,232,13,-51,164,41,-42,242,38,-26,201,42,-45,164,35,-17,228,13,-52,166,37,-44,248,39,-28,212,42,-48,159,36,-13,235,15,-51,172,39,-43,235,35,-19,207,35,-45,155,33,-21,237,18,-49,176,39,-44,237,36,-25,214,30,-50,153,29,-21,241,19,-44,174,40,-47,228,39,-20,209,28,-47,144,26,-24,249,19,-48,178,39,-44,223,36,-22,222,25,-49,142,24,-28,240,19,-41,182,37,-47,212,23,-50,149,32,-24,247,24,-45,187,36,-47,211,33,-18,215,17,-49,146,30,-36,247
37.25, 34179.16,9,-53,150,28,-36,249,29,-32,200,43,-46,180,38,-17,220,12,-50,164,33,-38,249,37,-47,176,36,-18,226,12,-52,164,39,-42,245,40,-27,202,41,-47,170,39,-18,229,14,-51,169,39,-45,248,38,-23,204,37,-47,162,38,-24,229,17,-46,174,44,-48,236,41,-19,203,33,-47,157,36,-21,240,19,-51,181,47,-44,230,40,-18,216,35,-49,155,38,-23,232,23,-40,186,49,-49,216,41,-16,204,29,-47,150,35,-28,248,26,-47,192,51,-47,209,37,-19,224,26,-55,154,34,-25,238,23,-42,191,43,-48,205,36,-16,213,23,-47,146,30,-31,248,27,-40,198,45,-44,191,30,-15,229,18,-56,155,32,-29,243,29,-37,206,44,-46,186,33,-13,224,16,-53,156,31,-34,252,34,-35,201,44,-44,174,25,-17,229,13,-52,158,33,-39,242,33,-32,205,43,-42,160,30,-15,232,14,-58,173,33,-39,240,32,-31,208,32,-51,163,21,-17,237,12,-54,165,32,-45,241,34,-29,202,30,-47,154,23,-24,241,13,-52,169,31,-46,240,32,-31,214,26,-49,152,25,-21,242,15,-51,168,29,-47,235,34,-27,212,25,-49,147,28,-24,247,22,-48,176,36,-24,216,23,-47,146,30,-30,244,21,-41,182,38,-47,212,36,-21,214,18,-51,152,32,-28,254,26,-44,189,41,-46,212,35,-21,216,16,-50,146,27,-35,245,25,-35,184,40,-46,202,40,-21,221,20,-49,152
37.09, 34180.00,15,-50,162,37,-37,252,39,-33,200,42,-44,179,36,-18,227,16,-49,158,37,-42,247,38,-28,206,44,-43,166,39,-19,230,16,-54,170,38,-42,246,40,-29,207,39,-48,165,34,-21,233,17,-50,166,38,-48,243,38,-28,209,37,-45,153,32,-21,242,19,-54,178,42,-43,232,40,-23,211,33,-47,152,32,-20,238,19,-47,179,41,-45,229,36,-19,213,27,-47,148,27,-21,246,23,-44,185,45,-43,218,34,-18,214,22,-48,145,26,-29,243,23,-40,187,43,-46,207,39,-18,217,22,-50,149,30,-27,245,23,-41,190,39,-47,204,36,-18,215,13,-50,147,29,-35,244,28,-34,190,38,-45,191,36,-20,223,13,-53,157,30,-33,252,32,-38,198,38,-46,181,27,-19,220,7,-53,158,29,-43,249,33,-33,198,41,-45,173,35,-21,237,15,-56,165,37,-39,243,32,-32,208,36,-49,169,31,-22,223,11,-50,170,37,-47,242,40,-25,205,39,-48,165,37,-17,239,15,-56,172,38,-41,235,33,-26,217,34,-51,157,34,-20,223,15,-44,180,44,-17,204,30,-51,161,35,-21,241,18,-49,181,42,-47,229,37,-17,211,30,-46,148,35,-28,240,25,-39,185,49,-47,214,39,-17,220,27,-51,154,38,-27,244,26,-40,190,47,-46,207,37,-16,214,25,-47,143,35,-33,243,26,-37,200,49,-45,196,40,-12,223,20,-52,156,38,-30,251,31,-35,197,45,-45,187,32,-17,222
37.11, 34174.16,29,-13,226,12,-52,165,33,-39,244,33,-30,205,39,-43,164,27,-17,235,13,-56,167,31,-42,243,30,-33,208,35,-48,159,25,-21,235,11,-56,166,30,-46,242,34,-32,215,32,-48,156,25,-20,238,10,-56,169,27,-47,237,32,-31,210,29,-47,148,25,-24,239,15,-49,171,30,-48,234,36,-26,218,25,-48,146,30,-22,247,20,-46,179,34,-46,222,36,-23,209,19,-45,148,29,-33,244,20,-40,177,35,-48,219,37,-25,216,17,-49,148,29,-32,255,25,-42,184,38,-46,209,35,-21,223,16,-49,146,28,-32,250,26,-39,192,39,-43,201,33,-19,220,11,-52,150,29,-34,250,27,-37,195,41,-45,200,40,-18,218,14,-50,148,28,-37,255,32,-37,195,43,-44,185,42,-20,228,16,-52,156,35,-37,247,32,-33,200,42,-45,180,40,-17,224,15,-48,160,41,-41,244,37,-29,201,44,-46,168,37,-19,227,41,-42,246,39,-28,205,40,-48,170,38,-19,229,14,-51,161,37,-45,241,38,-25,211,42,-46,159,40,-18,231,14,-51,177,36,-46,240,33,-26,210,33,-49,156,32,-21,236,16,-47,174,40,-47,230,39,-19,208,32,-47,158,32,-18,244,18,-51,181,38,-43,231,36,-22,214,25,-46,145,29,-28,238,18,-41,181,41,-48,214,39,-20,215,26,-50,153,34,-26,245,25,-45,188,42,-47,216,38,-18,211,16,-47,144,27,-38,247,24,-35,187,42,-45,198
37.05, 34156.66,43,-46,183,35,-21,223,10,-54,158,29,-39,253,32,-36,206,40,-45,179,32,-21,223,9,-52,159,29,-41,248,38,-30,201,42,-44,167,36,-19,232,13,-52,169,35,-41,246,37,-29,209,36,-45,167,34,-21,225,13,-46,164,35,-49,240,41,-24,203,40,-46,158,41,-20,241,20,-54,179,43,-44,238,40,-25,212,31,-50,158,36,-26,232,17,-43,173,43,-50,226,43,-21,206,32,-48,152,35,-27,239,20,-48,182,42,-51,227,44,-22,218,33,-51,151,41,-26,242,23,-45,190,45,-48,212,39,-17,216,28,-47,149,37,-32,243,27,-37,193,49,-46,197,36,-14,221,23,-53,152,35,-27,247,27,-38,200,44,-45,194,30,-12,224,16,-50,153,29,-29,249,31,-36,201,41,-43,182,26,-18,233,30,-33,240,30,-37,205,39,-46,173,28,-17,228,12,-56,159,28,-39,248,34,-39,210,41,-47,167,30,-16,230,9,-57,162,26,-44,243,33,-34,204,39,-46,162,30,-22,234,16,-55,164,32,-44,244,37,-33,210,35,-47,154,28,-22,238,14,-52,172,30,-45,233,35,-29,208,28,-48,153,28,-23,246,18,-51,175,32,-45,233,33,-30,214,21,-50,149,22,-25,243,16,-46,169,27,-46,229,39,-25,220,25,-45,144,29,-24,252,23,-47,185,32,-43,218,35,-23,218,17,-49,145,28,-33,246,25,-38,185,40,-47,207,43,-21,216,21,-50,150,35,-33,252,30,-40,189
37.01, 34164.16,36,-35,202,43,-47,183,40,-19,224,12,-51,151,33,-43,247,36,-29,202,46,-44,168,42,-18,229,13,-55,171,36,-41,248,38,-29,207,41,-48,166,37,-19,230,14,-49,168,39,-47,238,41,-23,208,40,-47,159,40,-20,237,20,-51,178,45,-48,234,42,-20,211,35,-49,153,38,-24,236,17,-44,180,42,-49,226,41,-19,217,33,-49,149,33,-25,238,18,-42,183,38,-50,215,36,-18,215,26,-48,149,35,-25,248,27,-45,190,42,-46,206,34,-16,225,18,-53,149,30,-29,241,23,-40,192,42,-47,197,36,-19,218,17,-52,151,30,-34,247,27,-39,198,41,-48,191,38,-18,225,31,-37,246,31,-34,197,42,-46,177,36,-20,221,13,-50,159,29,-43,250,34,-35,203,42,-45,171,35,-20,234,11,-54,158,31,-41,242,33,-32,208,35,-50,160,31,-21,228,8,-53,172,30,-47,248,36,-30,206,32,-49,157,27,-22,238,10,-53,171,30,-46,239,33,-28,213,30,-50,151,28,-23,235,15,-52,183,38,-48,230,40,-21,211,28,-53,154,31,-24,240,18,-47,179,39,-50,229,41,-21,216,29,-46,142,33,-31,244,21,-39,185,44,-47,209,43,-18,218,27,-50,148,35,-30,253,28,-41,193,45,-46,197,37,-17,222,17,-50,145,31,-35,243,26,-37,196,46,-46,192,40,-15,223,20,-53,154,33,-32,254,29,-38,201,40,-46,185,29,-16,229,14,-53,152,33,-38,249
37.05, 34146.66,30,-45,246,38,-32,209,43,-44,159,38,-17,236,16,-52,173,37,-43,242,39,-27,208,37,-47,154,32,-22,233,13,-47,166,33,-49,234,39,-25,212,34,-48,149,31,-18,246,16,-52,180,36,-44,229,33,-22,219,28,-48,147,26,-28,239,14,-42,176,32,-49,219,34,-22,215,24,-50,147,27,-25,252,20,-49,184,32,-47,218,34,-20,219,19,-53,146,25,-31,245,23,-38,180,32,-48,207,35,-22,216,15,-49,148,30,-34,256,31,-43,188,37,-45,202,37,-24,226,28,-39,250,28,-37,190,40,-46,189,40,-22,221,12,-54,155,30,-40,256,35,-37,203,44,-45,181,40,-17,224,10,-51,158,34,-42,247,36,-27,199,43,-46,172,42,-19,223,11,-52,165,34,-43,253,39,-29,201,42,-46,166,39,-19,236,17,-50,169,43,-43,233,37,-24,205,34,-49,166,39,-19,226,16,-48,172,41,-46,245,40,-23,209,36,-48,159,38,-20,237,17,-49,180,47,-47,229,41,-16,207,34,-49,157,35,-25,238,20,-44,182,44,-47,227,41,-20,219,32,-50,148,38,-27,239,19,-44,189,49,-52,215,38,-16,215,28,-51,151,32,-30,241,22,-43,192,46,-49,204,36,-17,218,23,-51,152,31,-30,243,26,-40,194,43,-46,197,32,-16,227,20,-53,149,30,-28,242,24,-37,200,41,-48,189,33,-14,224,17,-54,154,28,-31,246,26,-34,197,39,-47,178,31,-16,225,14,-52,155
37.29, 34143.33,12,-54,159,26,-45,245,31,-36,213,36,-50,160,33,-19,232,12,-54,168,33,-48,238,31,-28,207,32,-51,156,30,-23,237,13,-54,175,33,-48,240,32,-31,215,27,-52,154,28,-25,239,14,-49,177,38,-51,228,36,-23,209,27,-49,153,30,-24,240,17,-49,179,39,-48,230,37,-21,218,27,-52,148,31,-26,240,17,-41,179,40,-49,218,35,-18,218,32,-27,248,24,-42,191,45,-45,210,36,-15,220,21,-52,150,31,-29,246,28,-37,191,46,-48,200,39,-19,219,21,-50,146,33,-36,256,31,-41,195,46,-46,189,32,-22,225,15,-56,153,32,-37,250,30,-38,200,48,-47,177,36,-17,225,16,-54,155,32,-37,249,29,-36,205,44,-48,178,34,-14,232,16,-56,156,34,-39,249,32,-33,206,43,-47,162,31,-16,232,11,-56,168,32,-40,245,33,-32,203,37,-49,168,27,-18,238,12,-55,162,30,-42,243,35,-31,212,39,-47,154,30,-16,234,12,-53,166,31,-45,241,35,-28,212,36,-48,154,30,-19,239,13,-53,166,29,-47,236,30,-27,215,30,-50,146,27,-23,244,16,-52,179,36,-47,228,36,-24,212,25,-52,147,23,-28,244,14,-47,177,32,-49,223,34,-24,216,22,-50,145,26,-29,246,18,-45,180,32,-49,219,34,-19,218,19,-52,147,27,-28,252,25,-42,184,36,-45,211,35,-22,216,13,-48,144,27,-35,251,28,-37,186,40,-47,202,41,-20,218
37.27, 34157.50,45,-21,224,17,-53,162,39,-37,246,34,-30,201,41,-49,183,42,-19,226,12,-48,157,41,-45,245,38,-26,200,42,-48,169,43,-22,230,13,-53,166,37,-45,245,36,-31,211,38,-50,164,39,-22,227,9,-52,169,37,-48,236,38,-25,209,45,-19,238,22,-49,176,41,-47,237,40,-17,215,36,-41,147,43,-21,234,22,-38,177,36,-44,215,33,-16,218,26,-47,151,37,-14,241,24,-47,188,36,-43,222,33,-23,226,19,-50,147,26,-21,242,23,-49,187,39,-43,205,35,-20,220,23,-53,144,29,-26,239,23,-45,195,39,-48,207,36,-19,220,22,-57,147,29,-30,245,23,-42,194,40,-49,190,39,-22,222,16,-57,156,33,-42,247,33,-39,197,41,-47,181,38,-30,224,15,-49,148,30,-45,240,35,-38,207,41,-44,167,42,-24,230,14,-55,163,27,-40,245,37,-37,212,37,-45,165,32,-18,230,9,-50,162,24,-41,245,32,-29,216,30,-45,159,32,-14,230,10,-50,173,26,-43,246,36,-25,211,28,-43,155,30,-14,242,16,-53,174,34,-40,236,38,-24,220,29,-51,153,32,-19,236,18,-48,174,40,-49,226,43,-21,212,31,-50,147,39,-30,241,23,-47,184,46,-51,219,48,-24,216,28,-49,144,38,-39,242,24,-39,183,44,-51,206,46,-24,223,25,-47,146,34,-41,248,28,-41,192,41,-49,196,41,-22,226,30,-33,245,26,-40,202,39,-49,194,36,-13,232
37.05, 34152.50,39,-48,178,34,-13,232,13,-55,156,29,-39,245,33,-32,204,40,-44,165,38,-21,233,16,-53,163,31,-43,244,36,-35,215,37,-49,158,13,-54,162,31,-46,236,33,-27,209,35,-50,152,32,-20,238,11,-57,167,25,-51,245,32,-35,219,28,-51,143,24,-24,241,12,-52,174,24,-47,227,34,-27,216,22,-52,149,27,-20,247,19,-48,177,28,-47,228,35,-21,220,21,-46,139,29,-26,242,19,-38,175,29,-45,213,42,-19,228,20,-45,142,33,-23,255,27,-43,191,28,-43,203,35,-20,226,13,-47,144,34,-33,242,32,-32,190,32,-46,195,40,-21,225,12,-54,153,36,-33,255,37,-41,198,36,-46,189,39,-25,224,10,-51,152,35,-46,246,37,-35,197,41,-49,172,47,-27,228,13,-54,163,39,-46,245,41,-35,212,35,-47,173,43,-25,225,11,-48,160,36,-51,244,46,-24,208,40,-46,156,45,-21,236,14,-50,172,37,-47,239,41,-23,218,35,-47,152,41,-19,234,16,-45,179,39,-48,226,39,-17,216,28,-49,151,37,-18,242,21,-46,185,39,-45,224,38,-19,220,27,-46,146,34,-21,238,21,-44,187,39,-46,210,37,-17,222,21,-51,152,34,-22,245,27,-45,190,40,-46,202,30,-19,220,16,-52,147,27,-42,193,41,-50,192,35,-18,230,16,-63,152,33,-33,252,30,-44,200,40,-51,183,34,-23,223,14,-53,147,28,-42,242,33,-38,201,41,-49,170
37.11, 34166.66,31,-48,158,31,-48,158,8,-55,165,24,-41,244,31,-29,218,28,-46,155,30,-15,237,14,-48,170,23,-43,240,36,-28,221,24,-44,152,33,-19,243,20,-49,172,31,-43,231,42,-26,215,24,-45,146,31,-24,243,23,-45,175,36,-46,224,44,-23,224,28,-48,144,36,-25,244,23,-44,188,44,-50,212,46,-23,213,25,-49,146,35,-38,245,25,-42,189,42,-54,204,42,-24,225,18,-53,145,33,-41,250,26,-44,192,36,-48,193,39,-29,225,15,-49,146,30,-39,247,29,-40,199,39,-47,189,39,-16,230,16,-54,154,34,-34,255,33,-34,199,38,-44,177,29,-17,226,11,-48,154,28,-37,251,36,-32,206,39,-45,169,34,-15,241,16,-55,161,31,-34,248,37,-33,212,37,-43,160,32,-18,230,14,-48,160,31,-44,241,39,-31,213,36,-48,155,36,-17,238,13,-58,173,34,-45,244,39,-29,212,33,-49,148,30,-23,236,10,-50,172,32,-52,234,39,-26,207,29,-51,149,32,-25,247,17,-52,175,30,-51,227,33,-28,219,21,-50,137,25,-30,245,16,-45,183,37,-49,213,41,-21,219,21,-50,146,21,-45,187,35,-48,211,34,-20,221,17,-48,139,29,-32,246,25,-36,189,36,-44,192,38,-15,221,14,-55,156,35,-29,256,35,-39,196,36,-45,192,31,-18,222,8,-54,149,27,-40,250,34,-33,195,39,-44,179,42,-17,227,14,-55,159,37,-37,256,41,-34,209
37.25, 34164.16,43,-30,210,36,-50,165,38,-20,234,12,-49,169,36,-52,233,39,-21,205,34,-48,149,39,-24,234,21,-48,182,44,-49,234,45,-19,224,34,-51,154,38,-16,241,17,-47,184,40,-48,216,36,-14,213,26,-47,148,32,-26,241,24,-43,193,42,-48,211,37,-16,228,23,-55,155,36,-21,241,23,-42,189,42,-52,203,37,-13,218,18,-53,145,31,-33,249,25,-41,198,42,-47,193,34,-17,229,16,-57,149,29,-32,242,25,-37,199,41,-50,179,31,-17,225,13,-57,152,26,-37,252,30,-41,209,41,-52,177,33,-17,237,13,-59,152,27,-40,243,31,-35,204,41,-47,159,31,-19,227,11,-57,162,25,-43,246,32,-36,215,36,-52,165,31,-17,243,12,-58,160,24,-44,240,28,-31,211,28,-50,153,28,-17,240,14,-57,169,26,-43,242,33,-33,224,28,-50,152,29,-18,236,14,-47,166,28,-48,235,37,-23,212,27,-46,144,30,-23,245,19,-48,178,30,-45,228,36,-23,222,22,-50,144,23,-45,179,36,-46,221,41,-22,222,21,-49,141,31,-32,246,23,-43,184,38,-50,208,42,-22,220,19,-50,141,32,-35,251,28,-43,193,42,-47,200,39,-19,228,17,-55,148,31,-33,251,29,-38,194,38,-47,189,34,-20,225,16,-47,144,28,-36,252,31,-40,203,40,-46,178,36,-14,237,17,-59,154,34,-34,249,36,-34,209,40,-47,173,36,-15,223,11,-48,156,27,-42,249
37.27, 34172.50,34,-45,246,43,-30,216,31,-47,149,31,-19,242,14,-55,175,33,-46,235,38,-27,204,26,-47,149,27,-28,241,14,-47,170,30,-50,234,34,-27,225,24,-53,143,33,-18,247,18,-53,186,35,-48,218,34,-19,210,14,-50,140,19,-28,251,19,-44,186,35,-47,212,38,-18,228,19,-52,142,28,-26,248,23,-40,188,30,-47,201,33,-21,224,14,-51,146,28,-31,251,31,-39,195,36,-47,193,37,-19,225,10,-53,150,29,-38,252,32,-35,196,38,-47,183,39,-20,226,10,-52,153,32,-41,253,34,-34,202,34,-49,179,37,-20,230,10,-53,157,33,-44,246,35,-31,204,36,-46,167,37,-20,229,12,-54,164,37,-45,252,41,-27,210,34,-47,158,35,-19,235,12,-51,171,38,-44,241,41,-21,210,37,-48,153,37,-18,229,15,-47,178,41,-47,239,42,-20,213,32,-52,157,39,-16,241,42,-48,224,40,-17,214,28,-49,148,36,-24,233,19,-44,185,40,-50,223,36,-19,222,25,-55,150,35,-22,243,19,-50,194,44,-49,210,35,-16,213,23,-52,146,32,-28,244,24,-40,193,44,-50,203,33,-16,226,17,-57,147,29,-27,246,25,-41,203,45,-48,188,34,-12,223,16,-53,149,27,-34,243,27,-39,204,42,-48,185,34,-13,228,14,-55,150,29,-35,241,25,-35,204,36,-49,174,31,-14,227,10,-55,155,25,-36,249,29,-34,209,35,-47,171,30,-14,232,9,-54,155
37.25, 34167.50,11,-53,166,24,-46,238,31,-31,220,27,-50,148,31,-19,239,17,-52,173,31,-48,236,35,-25,217,21,-52,147,28,-23,243,16,-46,177,35,-49,230,40,-23,216,22,-49,144,31,-27,242,18,-43,177,33,-49,223,38,-22,222,21,-50,143,32,-27,249,25,-45,186,39,-47,208,36,-19,224,17,-53,142,32,-32,246,24,-39,190,40,-48,203,38,-18,226,18,-51,145,31,-31,255,31,-37,198,43,-47,187,37,-14,229,16,-53,149,33,-34,248,32,-35,205,42,-45,179,37,-13,228,12,-54,155,31,-38,250,34,-33,207,43,-49,171,34,-14,229,13,-53,160,34,-40,250,37,-32,210,40,-49,165,33,-16,233,10,-56,159,33,-43,241,34,-30,212,39,-48,158,35,-15,231,10,-55,171,34,-28,215,33,-50,160,35,-15,238,16,-50,165,31,-47,235,32,-23,211,27,-47,146,29,-23,241,16,-48,176,35,-48,230,37,-22,217,25,-54,151,31,-19,246,19,-47,175,33,-49,225,34,-20,215,21,-47,136,27,-26,245,17,-44,185,34,-46,211,33,-18,218,15,-55,151,30,-24,249,22,-42,184,34,-51,211,34,-21,219,15,-50,140,27,-32,248,22,-39,192,31,-49,196,34,-20,222,11,-55,152,31,-34,256,29,-36,192,36,-47,188,34,-19,221,10,-50,150,31,-40,251,33,-34,202,40,-46,182,40,-13,230,14,-56,161,37,-37,253,35,-30,203,36,-47,173,35,-18,223
37.35, 34163.33,37,-20,224,10,-47,170,39,-49,242,37,-23,212,35,-52,162,39,-17,235,16,-50,177,43,-48,231,36,-18,210,33,-49,153,36,-24,234,19,-44,186,47,-48,225,39,-14,218,29,-53,155,36,-23,236,17,-41,183,43,-52,218,35,-17,217,27,-49,149,35,-25,240,22,-41,191,42,-49,209,33,-14,227,22,-56,152,33,-25,238,22,-36,190,41,-51,201,30,-14,229,19,-52,148,29,-25,245,24,-43,202,41,-48,192,30,-12,227,16,-54,147,27,-31,240,22,-35,201,36,-49,183,31,-13,230,14,-56,150,23,-32,249,26,-37,210,38,-48,174,27,-13,231,11,-55,153,31,-32,203,37,-47,168,30,-16,235,10,-55,156,27,-42,244,28,-36,216,32,-52,163,28,-18,230,6,-57,161,25,-48,251,32,-31,212,32,-49,152,29,-21,235,10,-54,171,29,-49,242,34,-30,215,29,-49,153,29,-22,239,13,-51,175,34,-49,231,35,-24,217,26,-51,150,30,-22,237,13,-45,175,29,-50,232,35,-19,225,27,-50,144,35,-18,240,20,-41,183,36,-47,217,37,-16,224,22,-49,147,35,-25,244,26,-40,187,37,-45,205,36,-16,229,20,-51,143,34,-30,240,25,-37,193,40,-50,202,38,-17,227,21,-53,150,36,-28,252,32,-42,198,43,-48,191,32,-16,226,14,-54,145,28,-37,244,27,-38,198,41,-48,187,35,-16,235,17,-56,152,32,-33,253,30,-38,207,42,-47,176
37.35, 34158.33,37,-51,164,31,-12,231,12,-50,162,30,-44,242,31,-26,212,33,-49,158,26,-14,240,12,-55,163,30,-40,239,30,-28,218,31,-50,156,27,-14,236,12,-52,169,27,-46,241,29,-27,213,22,-51,149,18,-17,245,15,-51,169,33,-45,232,34,-26,218,27,-51,146,24,-18,244,13,-53,176,27,-48,232,32,-25,220,22,-51,142,24,-27,244,16,-45,178,33,-51,220,34,-23,223,19,-55,146,27,-27,248,16,-47,182,30,-52,220,38,-24,215,12,-51,143,25,-39,183,37,-46,208,39,-20,227,16,-52,150,35,-29,246,28,-34,184,34,-48,203,36,-18,224,13,-44,142,30,-32,252,30,-34,203,39,-44,191,42,-11,227,13,-49,152,35,-33,248,31,-28,197,38,-47,185,39,-17,223,13,-46,153,35,-36,246,33,-34,208,39,-48,184,40,-14,231,15,-53,158,35,-41,246,34,-28,206,39,-51,168,39,-20,223,11,-49,162,34,-48,244,37,-30,212,39,-53,172,43,-18,235,13,-55,167,39,-46,243,37,-26,207,36,-47,154,36,-24,231,12,-44,172,39,-50,232,40,-22,216,32,-52,159,34,-15,240,14,-51,174,34,-48,236,36,-17,220,32,-46,141,32,-19,235,16,-40,179,32,-46,220,34,-17,219,19,-48,148,30,-18,245,20,-43,182,33,-45,220,34,-18,225,20,-50,144,28,-21,243,20,-40,183,31,-47,212,35,-19,224,17,-50,142,29,-29,244,21,-40,192
37.27, 34169.16,30,-35,196,35,-48,188,34,-21,226,11,-51,153,32,-40,249,30,-35,201,38,-49,180,38,-18,224,12,-53,156,35,-42,246,35,-30,204,39,-47,173,37,-17,230,10,-55,162,32,-38,247,35,-28,210,36,-48,170,38,-15,221,11,-45,163,34,-47,246,37,-22,203,33,-47,164,35,-15,239,14,-53,168,39,-41,244,39,-25,219,34,-50,159,11,-47,171,39,-48,235,41,-17,210,36,-48,154,40,-20,231,16,-47,177,39,-50,233,37,-18,215,29,-52,150,36,-23,241,19,-43,181,46,-48,217,37,-15,221,28,-53,149,36,-22,234,20,-42,191,45,-51,218,38,-15,221,25,-51,146,31,-25,237,19,-42,189,41,-51,208,32,-15,225,23,-52,150,32,-23,244,23,-44,196,41,-49,199,29,-13,229,16,-54,147,28,-26,234,21,-39,202,41,-50,194,33,-12,223,15,-55,151,28,-28,244,23,-36,199,39,-51,187,31,-14,226,14,-52,150,28,-37,248,30,-36,199,37,-47,175,25,-15,233,10,-57,154,28,-36,248,28,-37,211,35,-49,171,27,-14,229,10,-55,157,27,-42,244,31,-33,207,33,-49,162,28,-19,233,7,-54,159,25,-43,248,31,-33,222,35,-51,161,32,-14,234,9,-54,164,28,-48,239,32,-27,213,31,-48,155,32,-19,237,13,-48,170,31,-47,237,34,-27,225,29,-52,150,30,-18,233,14,-48,177,34,-50,229,35,-18,214,26,-48,148,34,-17,242
37.19, 34163.33,30,-24,247,21,-46,196,39,-48,212,38,-15,227,21,-52,142,29,-30,245,24,-34,194,43,-46,192,35,-16,224,17,-51,151,31,-29,250,30,-41,204,41,-47,189,32,-14,229,13,-56,149,27,-36,248,30,-34,204,33,-14,233,15,-55,154,30,-37,245,31,-35,214,39,-48,168,26,-15,230,11,-54,158,30,-41,250,34,-30,206,37,-45,157,26,-15,234,10,-58,168,31,-40,246,35,-32,215,32,-49,158,22,-14,240,13,-53,162,31,-42,237,36,-24,213,32,-47,149,28,-17,235,13,-49,168,28,-47,238,35,-28,219,27,-50,149,27,-19,245,15,-51,169,28,-47,229,31,-25,218,21,-50,145,26,-22,245,18,-46,178,31,-47,227,33,-23,224,17,-50,144,24,-24,244,17,-44,178,28,-49,218,32,-22,219,14,-52,146,27,-25,247,22,-44,182,33,-49,217,35,-22,225,15,-53,145,29,-27,248,25,-39,186,32,-49,206,36,-19,221,14,-50,147,33,-32,249,32,-35,190,37,-48,201,39,-17,228,14,-53,143,32,-35,251,29,-36,200,41,-48,189,41,-17,219,12,-49,154,37,-38,248,35,-31,196,37,-49,186,37,-17,228,11,-54,153,35,-40,247,36,-29,207,39,-47,178,42,-13,228,13,-49,156,34,-40,244,32,-28,213,36,-49,171,35,-11,231,13,-51,164,37,-42,239,37,-20,216,38,-13,225,14,-47,168,34,-46,239,35,-23,219,33,-51,158,36,-13,232
37.27, 34165.83,28,-49,146,34,-20,241,19,-47,184,36,-50,220,36,-20,222,22,-51,146,31,-23,242,20,-42,181,34,-17,222,19,-50,144,32,-24,243,23,-41,193,34,-48,207,32,-14,228,15,-54,143,27,-28,244,22,-34,194,35,-48,189,30,-16,223,11,-52,152,30,-27,249,31,-38,201,33,-48,189,25,-12,233,11,-57,149,28,-33,244,27,-32,200,33,-48,176,32,-18,228,11,-54,152,29,-36,248,34,-39,215,36,-50,173,32,-15,229,7,-58,160,28,-43,248,37,-28,207,37,-47,164,38,-20,227,9,-50,167,33,-46,246,36,-28,214,32,-50,160,35,-20,234,13,-51,166,34,-46,238,36,-23,208,28,-48,152,33,-20,240,20,-48,176,38,-43,231,39,-20,224,28,-52,152,35,-15,235,20,-44,182,41,-48,222,37,-14,213,25,-47,145,31,-24,238,21,-41,189,44,-47,215,39,-16,225,24,-54,154,35,-20,245,27,-41,188,43,-49,204,37,-15,225,22,-49,140,30,-30,242,22,-42,201,42,-47,196,34,-14,231,18,-59,151,31,-28,244,25,-37,202,41,-51,185,32,-15,223,13,-52,149,27,-36,244,26,-37,208,40,-51,180,30,-13,238,14,-59,155,30,-33,242,37,-50,170,28,-13,224,9,-52,153,26,-41,248,31,-31,212,37,-47,161,28,-12,241,13,-56,161,29,-41,243,30,-30,209,30,-48,154,20,-18,233,11,-51,163,26,-46,242,32,-30,219,26,-51,154
37.27, 34165.83,19,-53,147,25,-20,254,20,-50,172,31,-46,224,34,-24,217,18,-48,137,26,-31,244,19,-44,188,39,-49,218,41,-19,220,15,-56,149,30,-26,247,23,-40,181,34,-49,214,41,-20,217,16,-45,142,31,-34,248,26,-37,194,36,-47,202,41,-15,229,17,-54,151,37,-28,246,30,-31,194,37,-46,191,33,-19,221,10,-48,149,33,-38,248,33,-34,202,43,-49,186,39,-14,233,15,-54,156,34,-36,248,33,-30,201,37,-48,174,34,-18,223,11,-47,153,34,-43,248,38,-29,208,41,-47,168,39,-15,235,14,-55,164,38,-40,243,34,-27,212,37,-50,164,35,-16,228,14,-47,167,36,-50,243,38,-23,212,32,-50,156,34,-17,237,15,-49,171,39,-48,235,37,-23,212,29,-49,150,28,-21,235,14,-48,175,36,-47,231,37,-19,221,29,-51,147,33,-17,240,17,-46,180,35,-49,221,33,-16,214,19,-49,145,25,-26,247,21,-42,185,39,-47,213,33,-18,223,16,-54,144,25,-25,245,21,-39,188,37,-50,204,36,-18,221,14,-50,144,26,-30,247,37,-49,199,36,-16,221,9,-52,145,22,-36,256,27,-37,194,35,-46,181,33,-20,228,12,-52,150,29,-36,247,32,-37,210,36,-48,179,32,-17,228,6,-57,157,30,-40,246,31,-32,206,36,-50,171,37,-20,226,12,-53,164,36,-42,243,34,-28,209,33,-52,168,34,-16,230,12,-50,163,34,-48,248,37,-22,213
37.17, 34150.83,39,-18,220,32,-47,146,36,-20,237,19,-44,185,40,-48,221,36,-16,218,24,-51,150,34,-25,240,25,-40,184,43,-48,212,36,-16,222,22,-50,145,32,-24,245,23,-46,199,45,-47,204,34,-13,229,21,-56,145,33,-26,237,24,-37,202,46,-50,194,36,-11,218,17,-51,151,28,-33,248,26,-40,206,43,-48,188,32,-12,228,14,-55,149,27,-35,242,24,-34,206,39,-48,179,32,-14,233,16,-53,155,29,-35,247,28,-34,214,37,-48,163,27,-15,231,11,-52,157,24,-40,235,27,-31,213,33,-50,161,28,-12,242,14,-58,166,29,-38,242,30,-30,218,27,-50,155,21,-19,231,8,-45,163,24,-50,237,33,-27,216,26,-47,153,25,-16,248,12,-55,166,21,-44,239,31,-28,224,24,-52,144,26,-21,239,15,-44,172,25,-51,230,35,-25,224,21,-50,147,28,-21,249,23,-47,181,33,-47,220,35,-22,214,14,-49,142,24,-33,244,37,-50,217,42,-20,225,15,-55,147,31,-29,254,25,-39,190,38,-48,201,37,-18,217,15,-44,146,31,-36,247,29,-35,196,39,-48,197,39,-13,231,14,-55,150,34,-31,246,29,-31,200,39,-48,183,38,-15,221,11,-49,156,35,-36,247,34,-32,206,39,-49,184,37,-13,228,12,-51,152,32,-40,249,35,-28,205,41,-44,168,37,-19,229,16,-51,163,35,-42,246,36,-28,213,35,-52,165,35,-13,235,15,-51,164,36,-44,238
37.41, 34158.33,36,-47,226,34,-20,219,27,-52,152,32,-18,234,19,-44,181,35,-49,224,38,-19,218,25,-47,143,29,-23,243,21,-42,187,38,-47,211,35,-16,222,18,-54,146,29,-25,246,23,-37,187,36,-49,201,33,-17,220,14,-51,145,26,-31,245,24,-39,195,35,-49,198,34,-14,226,12,-54,148,30,-32,249,27,-34,197,31,-49,187,28,-16,227,7,-55,151,26,-35,251,28,-36,207,31,-46,180,30,-16,225,8,-53,155,30,-39,247,33,-30,208,37,-50,170,30,-15,231,9,-57,162,31,-40,252,33,-30,211,35,-49,164,32,-20,228,13,-49,167,36,-46,236,39,-27,210,32,-50,161,34,-21,235,18,-54,175,42,-47,236,40,-24,210,33,-51,156,35,-23,231,16,-43,170,37,-52,233,40,-20,219,34,-49,146,38,-20,241,21,-48,186,37,-15,215,24,-51,150,33,-22,238,18,-40,184,41,-49,220,37,-15,229,27,-51,150,37,-16,237,20,-42,187,35,-48,211,31,-14,222,23,-47,144,31,-26,240,23,-36,196,39,-47,199,31,-11,235,21,-60,153,37,-22,246,29,-38,202,42,-49,186,27,-14,222,15,-51,147,29,-39,243,30,-37,201,45,-49,175,32,-13,236,17,-63,160,31,-32,245,30,-37,210,40,-51,173,29,-15,225,15,-53,151,25,-43,243,28,-35,211,35,-50,166,27,-12,244,12,-60,159,27,-35,243,28,-32,217,34,-49,157,19,-17,230,8,-50,162
37.21, 34143.33,12,-46,168,25,-46,234,31,-28,221,23,-52,151,28,-17,249,19,-54,173,30,-47,230,30,-27,220,20,-53,143,23,-28,243,19,-45,174,30,-48,225,35,-28,226,20,-54,147,31,-25,248,26,-45,183,34,-49,215,38,-20,214,17,-46,143,31,-34,247,29,-37,186,39,-48,208,43,-18,226,15,-52,145,32,-26,250,27,-37,192,40,-48,200,41,-16,222,15,-45,146,32,-34,245,28,-31,196,36,-46,193,36,-13,229,17,-54,154,35,-29,248,32,-33,203,36,-49,185,31,-17,228,13,-49,149,32,-38,243,36,-32,206,40,-48,173,37,-14,234,16,-55,161,35,-39,249,37,-30,211,41,-48,165,38,-16,229,16,-50,161,38,-26,209,39,-49,163,37,-17,236,15,-51,161,34,-47,244,36,-25,213,36,-49,149,31,-25,234,12,-50,173,33,-49,236,35,-25,219,28,-53,152,29,-14,245,15,-56,181,35,-43,230,30,-21,217,24,-48,145,19,-26,232,13,-40,175,34,-48,222,35,-19,221,24,-51,147,27,-15,247,20,-49,186,32,-46,224,33,-17,223,19,-52,141,25,-25,239,19,-37,181,32,-49,209,38,-19,222,19,-47,144,28,-27,251,25,-44,190,34,-49,204,34,-18,224,13,-54,145,27,-32,247,25,-38,194,32,-48,196,33,-19,225,10,-55,151,29,-34,253,29,-38,197,33,-48,189,30,-22,226,10,-52,149,28,-38,248,31,-35,201,38,-49,180,37,-17,226
37.19, 34140.83,38,-17,231,16,-50,164,37,-41,244,39,-25,214,38,-50,168,44,-17,227,16,-43,164,36,-47,241,38,-20,209,36,-45,153,39,-18,236,20,-48,178,44,-42,230,37,-18,219,32,-51,157,36,-17,230,17,-45,179,39,-47,226,34,-17,217,28,-52,151,32,-21,235,18,-47,187,44,-49,222,36,-17,222,26,-53,151,31,-23,237,21,-43,184,39,-51,214,35,-17,223,23,-49,146,32,-26,239,20,-44,194,38,-50,206,30,-15,225,20,-54,148,27,-24,244,26,-39,198,42,-49,197,35,-14,226,18,-51,145,21,-38,202,37,-47,185,31,-13,231,16,-55,154,30,-28,247,29,-37,205,34,-49,180,25,-13,228,9,-51,148,23,-39,242,26,-35,205,34,-47,173,29,-13,235,12,-59,157,25,-34,242,26,-36,214,28,-52,170,27,-14,229,7,-54,159,27,-43,244,32,-32,213,31,-47,161,29,-18,230,8,-52,163,23,-48,245,33,-29,216,30,-49,155,30,-20,242,12,-54,171,30,-46,237,35,-28,219,30,-50,150,32,-23,235,16,-48,176,34,-49,230,35,-22,218,24,-50,147,28,-25,241,17,-48,176,35,-51,228,40,-21,224,28,-48,141,30,-27,242,19,-47,183,34,-48,216,36,-20,223,20,-51,144,30,-24,248,25,-43,191,39,-46,208,35,-14,221,17,-47,142,30,-29,244,27,-34,195,40,-46,200,40,-14,230,19,-52,149,31,-24,248,29,-37,198,40,-46,188
37.19, 34150.00,37,-48,169,29,-17,226,11,-54,156,26,-44,246,32,-38,213,35,-49,168,30,-18,241,11,-60,161,30,-42,241,35,-32,213,36,-47,156,27,-19,226,10,-50,162,25,-47,244,35,-30,217,34,-48,154,32,-13,242,12,-51,163,25,-45,235,32,-23,219,25,-46,143,26,-21,236,15,-44,172,26,-45,231,34,-22,223,19,-49,146,25,-16,247,18,-48,178,30,-43,224,33,-19,217,15,-47,141,22,-42,180,31,-47,215,35,-22,223,12,-55,146,25,-28,252,24,-46,186,34,-48,208,38,-22,220,12,-48,141,24,-40,249,27,-40,193,36,-49,198,44,-22,225,13,-53,151,28,-36,257,31,-38,197,37,-44,182,36,-22,219,8,-46,154,32,-43,249,36,-31,201,38,-47,181,39,-15,231,12,-53,160,35,-38,246,33,-30,205,35,-47,176,39,-17,224,14,-45,160,37,-39,243,38,-25,210,35,-48,174,40,-13,234,18,-53,170,39,-42,240,35,-22,211,31,-48,161,35,-22,225,14,-45,172,40,-46,233,39,-21,220,32,-50,157,37,-13,237,17,-53,184,39,-47,230,36,-18,217,31,-49,149,35,-25,233,19,-41,182,42,-49,215,39,-19,223,25,-55,153,35,-24,242,22,-48,192,41,-49,213,35,-17,216,20,-48,141,24,-33,242,22,-41,191,38,-48,199,35,-17,229,20,-53,150,30,-26,249,26,-44,200,36,-44,194,31,-15,225,15,-50,143,24,-32,242,28,-36,201
37.21, 34145.00,30,-39,214,33,-45,166,34,-17,237,13,-58,158,25,-38,242,33,-37,215,31,-48,161,34,-20,232,9,-54,157,26,-48,244,33,-34,216,29,-47,152,32,-22,236,14,-53,172,31,-45,234,34,-30,215,23,-49,154,25,-20,242,15,-50,171,27,-41,234,34,-28,223,24,-45,142,16,-48,184,30,-42,224,37,-21,225,22,-52,150,30,-15,246,24,-47,183,35,-42,219,40,-20,222,24,-44,139,31,-28,239,27,-38,187,42,-44,205,47,-18,226,25,-49,148,36,-27,249,28,-42,192,38,-45,200,38,-18,223,17,-46,140,29,-36,245,27,-35,196,37,-45,189,36,-16,236,15,-55,151,32,-27,249,28,-41,206,32,-45,181,24,-15,229,9,-52,153,27,-34,247,32,-34,207,35,-45,174,27,-14,238,12,-58,159,28,-32,249,34,-37,214,36,-45,165,28,-16,232,14,-50,159,31,-43,241,40,-32,208,37,-44,156,33,-17,240,17,-56,165,33,-42,239,38,-31,218,33,-48,153,31,-19,230,13,-45,163,29,-49,237,40,-29,214,30,-43,146,28,-22,246,14,-52,171,26,-45,232,34,-29,225,23,-49,144,24,-19,239,12,-47,172,21,-47,225,29,-23,216,15,-49,144,22,-18,253,20,-51,183,27,-41,219,33,-20,224,14,-52,147,24,-21,247,23,-38,178,30,-47,212,37,-22,220,14,-48,144,27,-31,251,28,-42,191,32,-45,204,41,-22,226,15,-50,146,33,-38,188
37.41, 34150.00,31,-36,245,33,-34,198,31,-46,183,33,-19,226,10,-50,155,33,-36,252,40,-33,210,35,-44,176,36,-12,232,13,-54,160,37,-34,244,42,-24,206,39,-46,166,14,-44,166,38,-45,245,42,-25,214,39,-49,159,40,-19,234,17,-50,173,43,-45,228,41,-24,212,36,-49,158,39,-20,230,18,-51,179,39,-47,233,40,-23,220,30,-49,152,33,-22,228,14,-44,180,34,-49,223,36,-19,214,23,-47,149,27,-20,246,17,-53,190,34,-43,215,31,-20,229,19,-52,149,27,-20,234,21,-42,188,33,-46,211,35,-15,225,20,-49,143,25,-21,247,25,-42,194,34,-45,198,36,-14,223,19,-47,144,27,-29,242,27,-38,200,37,-45,190,36,-15,230,14,-54,151,28,-31,248,29,-35,200,34,-46,178,29,-23,225,6,-51,152,22,-38,243,28,-40,214,32,-46,176,29,-15,232,7,-59,159,23,-38,252,32,-36,208,34,-44,161,25,-23,229,5,-49,159,20,-45,246,34,-36,219,32,-45,158,29,-17,239,9,-61,173,26,-39,239,36,-30,217,28,-48,156,30,-17,230,13,-48,170,31,-46,237,40,-24,215,27,-45,150,32,-20,239,21,-47,176,37,-45,226,41,-20,218,28,-48,147,33,-22,236,21,-44,184,37,-47,221,40,-18,221,23,-49,147,24,-39,183,37,-45,210,33,-19,220,19,-49,143,31,-28,245,27,-42,197,41,-46,200,35,-13,228,18,-54,151,33,-24,246
37.21, 34150.83,29,-33,247,29,-33,247,33,-34,209,39,-47,176,13,-52,152,28,-37,246,35,-34,215,40,-47,164,34,-15,229,11,-53,158,23,-41,246,33,-33,214,34,-46,157,31,-17,236,12,-51,161,26,-45,240,34,-31,221,29,-46,150,30,-14,244,17,-54,169,28,-42,234,28,-27,221,23,-50,146,20,-21,240,12,-49,173,24,-45,227,33,-24,226,23,-50,147,27,-16,245,19,-53,180,26,-46,224,32,-21,223,17,-52,142,23,-27,243,20,-41,179,31,-49,220,40,-22,219,16,-50,140,23,-28,255,24,-45,190,31,-43,205,37,-20,223,13,-50,144,29,-34,249,31,-34,189,37,-47,193,41,-19,226,11,-51,150,30,-35,256,34,-40,200,36,-46,192,37,-21,226,11,-51,148,27,-41,249,32,-32,201,34,-44,177,38,-18,230,12,-54,158,36,-37,249,41,-32,210,38,-46,174,37,-16,227,12,-48,159,32,-43,242,38,-25,207,37,-44,164,39,-17,228,15,-50,171,39,-41,239,40,-24,218,36,-48,162,36,-13,232,18,-46,173,39,-46,228,37,-18,216,33,-46,154,34,-20,229,19,-46,183,40,-47,227,40,-21,222,31,-19,234,17,-47,189,40,-50,218,35,-18,220,24,-49,148,29,-26,240,22,-45,193,39,-46,205,35,-18,225,19,-53,149,31,-26,240,24,-39,198,39,-50,197,34,-16,223,18,-51,146,26,-31,243,23,-38,201,36,-46,188,30,-13,232,16,-54,149
37.41, 34153.33,13,-55,156,24,-38,245,30,-33,211,28,-45,159,22,-17,236,11,-54,161,22,-40,240,30,-35,223,27,-51,154,24,-16,237,12,-57,167,26,-47,240,35,-29,216,27,-48,147,27,-23,238,16,-51,175,29,-46,230,36,-28,222,22,-53,152,30,-21,242,20,-46,177,32,-49,221,36,-21,217,19,-48,145,28,-27,247,26,-42,183,34,-45,214,37,-18,230,21,-50,140,30,-24,247,27,-39,196,36,-44,198,39,-13,222,16,-47,146,29,-32,249,32,-34,198,37,-46,192,36,-17,229,17,-52,147,30,-32,251,34,-38,208,38,-45,180,35,-13,229,16,-52,153,33,-37,247,36,-29,206,38,-46,170,32,-18,231,16,-52,159,32,-39,246,39,-33,213,36,-47,166,33,-16,230,13,-52,162,29,-45,245,39,-30,212,36,-45,155,34,-18,235,16,-51,167,32,-44,234,39,-27,221,31,-49,152,34,-16,234,14,-49,176,33,-48,236,40,-20,216,29,-46,140,26,-23,241,15,-43,181,32,-46,222,36,-19,219,26,-20,242,20,-45,187,32,-48,215,32,-17,224,15,-51,145,26,-24,244,25,-38,191,34,-47,200,35,-16,220,12,-49,149,23,-30,245,25,-40,193,29,-48,198,32,-20,232,12,-56,147,27,-33,248,29,-39,200,30,-47,182,31,-21,228,12,-55,155,30,-36,244,32,-36,205,30,-49,178,31,-20,230,12,-52,158,32,-42,246,36,-32,211,35,-47,167,36,-17,223
37.25, 34148.33,35,-17,237,18,-46,172,36,-44,235,40,-20,219,29,-47,152,35,-19,234,20,-44,177,39,-45,225,37,-18,225,29,-50,152,37,-16,233,23,-46,187,40,-48,219,36,-15,219,25,-49,147,34,-26,239,24,-36,186,42,-49,204,34,-14,228,24,-53,147,34,-25,244,28,-42,202,46,-47,198,35,-13,225,17,-54,145,29,-33,241,27,-37,200,43,-48,183,34,-16,227,19,-55,158,32,-30,248,30,-41,208,39,-50,186,26,-15,232,14,-54,146,26,-37,240,29,-35,209,37,-47,168,28,-12,235,14,-58,159,26,-33,246,29,-35,219,32,-48,166,22,-9,234,12,-53,157,24,-39,242,31,-29,214,30,-46,156,26,-14,239,14,-53,164,26,-40,237,31,-30,218,24,-49,154,24,-16,241,16,-50,161,25,-44,236,31,-28,221,23,-46,144,23,-21,243,17,-48,171,27,-46,230,35,-27,221,26,-25,243,16,-46,171,26,-49,225,34,-27,218,14,-53,145,24,-28,252,23,-50,183,33,-46,219,37,-25,222,14,-50,143,25,-32,247,23,-39,180,31,-46,207,40,-22,223,20,-47,147,32,-30,247,29,-37,190,29,-47,207,40,-15,232,19,-49,145,34,-28,246,31,-31,198,34,-46,191,35,-15,225,17,-47,148,35,-35,248,38,-31,206,40,-44,182,40,-15,225,13,-48,153,33,-37,242,34,-29,205,36,-47,178,39,-16,223,16,-48,162,37,-42,248,41,-31,213,36,-45,168
37.35, 34144.16,36,-48,151,33,-17,233,12,-49,175,33,-47,235,40,-22,215,30,-46,147,28,-21,237,16,-45,181,35,-44,227,41,-19,224,27,-50,146,27,-20,237,16,-43,182,33,-49,217,38,-16,218,23,-46,145,28,-21,242,24,-38,187,31,-47,210,32,-13,226,15,-51,148,28,-27,246,25,-36,191,34,-48,197,32,-18,218,10,-50,148,24,-36,248,27,-39,199,36,-48,193,31,-18,231,10,-56,149,24,-34,249,27,-38,207,33,-46,175,30,-19,223,11,-49,159,27,-41,247,34,-34,208,30,-47,176,29,-23,236,12,-54,157,29,-42,245,35,-34,210,32,-46,163,30,-21,228,11,-51,169,32,-42,245,40,-28,213,31,-47,166,31,-15,233,15,-46,166,32,-46,237,37,-21,211,28,-43,151,19,-48,177,34,-41,228,37,-24,231,27,-54,155,31,-15,231,21,-43,181,36,-47,223,40,-17,218,28,-44,141,28,-24,239,22,-45,192,39,-43,212,39,-17,231,26,-54,149,36,-23,237,25,-36,188,38,-50,197,33,-19,222,19,-46,146,31,-30,242,29,-41,206,41,-46,193,36,-12,232,18,-55,151,33,-31,240,28,-33,200,39,-49,182,31,-18,226,14,-50,149,27,-38,245,30,-40,214,37,-47,177,31,-14,239,17,-57,158,26,-36,245,32,-33,211,34,-47,161,24,-19,233,13,-51,155,23,-41,239,33,-34,223,35,-47,156,31,-11,241,17,-56,164,24,-38,237,29,-26,221
37.41, 34143.33,33,-23,221,19,-48,145,20,-26,239,17,-43,174,24,-48,221,35,-22,221,18,-48,144,27,-23,250,26,-46,181,23,-47,215,32,-24,229,13,-51,142,24,-31,247,26,-39,186,31,-47,203,37,-23,223,11,-48,145,25,-34,250,29,-42,196,31,-46,201,39,-19,227,15,-52,151,32,-34,248,31,-33,196,34,-46,184,37,-21,226,13,-47,153,34,-39,247,35,-33,206,35,-47,178,38,-17,228,16,-48,161,38,-40,244,37,-26,204,33,-47,170,36,-17,229,15,-47,166,39,-39,240,39,-24,210,32,-47,167,34,-15,230,14,-49,168,38,-43,242,39,-21,216,36,-46,157,17,-46,175,39,-44,229,36,-21,215,30,-48,155,35,-20,232,19,-44,179,40,-47,228,39,-19,225,31,-50,150,36,-16,239,21,-47,189,39,-49,214,30,-17,216,20,-48,147,25,-30,234,22,-43,193,40,-47,209,37,-20,228,22,-56,153,29,-21,242,25,-46,198,37,-49,203,31,-18,220,16,-46,142,21,-31,240,23,-38,199,35,-45,191,29,-15,230,15,-56,151,28,-24,246,29,-39,204,35,-48,189,26,-10,225,11,-51,147,23,-33,242,28,-35,205,33,-43,176,26,-16,232,12,-55,155,24,-32,243,32,-36,213,32,-49,172,24,-16,229,8,-53,154,22,-40,243,34,-34,212,32,-45,161,28,-17,235,13,-57,166,29,-37,242,35,-31,217,30,-50,160,26,-19,226,7,-50,168,29,-48,242
37.43, 34139.16,32,-47,234,38,-21,217,28,-43,144,31,-21,245,24,-48,188,40,-42,218,36,-16,224,24,-52,151,31,-18,232,22,-39,183,40,-47,221,41,-15,223,26,-46,145,33,-20,241,24,-45,190,37,-45,212,33,-16,230,25,-49,145,31,-26,238,24,-37,196,40,-45,196,34,-14,226,21,-50,147,31,-26,245,30,-40,203,41,-47,191,32,-13,229,19,-54,149,31,-32,243,28,-34,201,39,-46,177,29,-17,230,16,-52,157,31,-34,243,31,-39,212,36,-48,178,13,-57,155,29,-36,244,30,-32,209,36,-44,163,23,-16,230,11,-53,159,24,-38,243,31,-35,217,30,-47,162,21,-12,242,13,-57,159,26,-37,236,31,-28,219,30,-48,152,20,-16,231,10,-50,170,24,-44,242,36,-30,218,25,-47,151,21,-19,242,15,-49,162,23,-47,234,35,-28,216,21,-44,146,22,-18,246,17,-53,173,23,-43,235,32,-27,230,19,-49,142,20,-22,240,16,-43,175,22,-48,225,33,-25,224,19,-47,143,26,-21,251,26,-47,187,29,-45,219,34,-20,226,13,-51,143,22,-30,242,22,-38,184,33,-47,209,40,-21,222,18,-48,145,31,-27,251,33,-43,194,36,-45,203,40,-18,225,17,-49,144,31,-33,243,29,-32,192,36,-46,191,42,-18,225,19,-49,150,34,-31,247,35,-36,205,36,-47,192,37,-15,230,17,-49,149,31,-35,244,34,-28,205,37,-44,174,38,-15,228,16,-48,159
37.35, 34140.00,14,-50,169,33,-43,242,37,-27,217,33,-48,160,30,-17,236,15,-48,169,31,-46,234,36,-24,216,28,-47,149,30,-19,241,20,-49,174,35,-44,229,38,-24,222,25,-48,147,26,-20,237,17,-45,181,34,-46,225,38,-21,220,22,-46,144,26,-23,241,17,-45,186,31,-48,212,33,-17,218,16,-49,147,25,-26,246,25,-39,186,30,-46,208,32,-17,234,27,-24,247,23,-37,198,32,-47,193,25,-19,217,9,-47,152,23,-36,243,31,-35,197,33,-49,191,35,-17,236,13,-58,152,28,-29,243,31,-37,206,30,-48,177,30,-23,221,10,-46,155,27,-45,244,35,-34,207,25,-46,171,26,-21,240,11,-59,165,31,-39,243,38,-30,216,34,-49,160,33,-18,222,12,-48,166,29,-44,241,40,-24,221,32,-46,155,36,-14,236,23,-45,173,37,-41,227,39,-16,219,28,-44,150,33,-18,231,25,-41,184,37,-44,223,37,-18,227,25,-52,150,33,-17,236,26,-43,190,41,-46,207,37,-17,222,24,-49,150,34,-24,234,28,-43,192,39,-47,207,37,-19,226,23,-50,144,30,-31,236,25,-35,198,42,-49,189,36,-15,231,21,-53,150,32,-25,241,25,-42,213,37,-50,188,30,-14,228,15,-52,151,28,-35,242,30,-32,202,37,-44,175,25,-14,238,14,-55,154,26,-31,243,29,-37,219,32,-49,171,21,-13,231,15,-51,154,24,-40,239,32,-32,215,33,-45,160,26,-13,240
37.29, 34140.00,24,-19,245,17,-54,174,25,-41,233,31,-31,231,22,-54,147,20,-17,238,14,-47,171,24,-47,226,32,-26,215,16,-44,144,20,-22,249,23,-49,177,24,-43,228,34,-23,230,17,-55,143,22,-24,242,23,-40,182,30,-48,212,37,-24,222,29,-25,251,30,-45,192,32,-44,209,35,-16,227,15,-54,148,33,-33,239,31,-30,185,35,-49,198,40,-25,221,17,-46,152,35,-32,252,41,-41,203,37,-46,190,39,-15,230,15,-52,154,33,-38,240,36,-26,198,36,-44,178,42,-21,220,15,-44,162,37,-35,243,42,-31,212,31,-47,180,37,-12,234,16,-53,161,35,-40,240,37,-20,211,35,-45,162,34,-18,230,16,-44,172,36,-40,231,36,-23,221,30,-52,166,34,-11,230,20,-46,177,37,-46,228,35,-17,217,27,-49,155,31,-19,229,20,-43,180,38,-47,229,38,-19,225,27,-51,149,28,-22,235,18,-42,181,37,-50,213,38,-21,220,25,-45,145,28,-26,234,21,-48,196,33,-49,215,34,-18,230,21,-54,148,29,-23,241,22,-38,193,33,-50,193,26,-18,219,10,-47,149,20,-32,239,27,-39,206,35,-46,193,32,-11,232,15,-58,153,25,-29,245,26,-33,205,33,-50,177,24,-17,221,7,-45,152,20,-39,241,31,-36,214,31,-46,175,25,-13,234,11,-60,159,22,-36,246,31,-30,218,32,-48,162,25,-17,225,23,-45,241,35,-31,221,29,-48,160,28,-17,242
37.09, 34144.16,26,-53,150,28,-16,246,19,-49,181,32,-46,223,33,-20,218,21,-45,139,24,-28,242,26,-40,189,41,-42,208,43,-14,230,22,-53,146,22,-38,193,35,-49,202,37,-15,220,20,-46,149,31,-32,249,36,-38,200,40,-45,192,34,-13,232,17,-52,148,31,-34,244,33,-32,204,40,-47,174,31,-18,226,13,-49,154,28,-37,248,37,-38,215,40,-48,170,31,-12,237,18,-56,161,31,-38,239,32,-28,210,33,-46,158,24,-17,228,13,-46,165,30,-40,242,39,-30,222,31,-47,157,24,-13,241,13,-54,170,26,-43,235,33,-26,217,27,-45,145,18,-24,234,14,-47,175,29,-44,229,41,-23,224,25,-50,152,26,-15,245,20,-48,175,27,-48,226,36,-20,218,18,-43,141,20,-30,240,19,-42,180,26,-47,215,34,-21,230,17,-53,146,27,-20,246,26,-40,185,26,-49,206,28,-19,221,11,-46,142,24,-32,246,29,-37,201,32,-45,195,32,-19,227,10,-55,153,23,-32,246,28,-34,197,28,-49,190,30,-21,225,12,-48,149,28,-39,250,38,-36,210,32,-47,176,33,-18,231,10,-54,160,31,-40,246,37,-27,204,34,-49,171,34,-21,226,13,-47,160,32,-43,242,38,-29,216,34,-48,161,34,-16,232,17,-53,175,37,-17,211,30,-50,162,35,-18,225,20,-41,174,40,-47,235,40,-18,221,32,-51,157,35,-15,234,22,-44,179,40,-45,220,36,-14,220,30,-47,152
37.21, 34140.00,19,-49,145,19,-49,145,26,-42,200,42,-43,196,33,-14,236,23,-56,151,29,-24,238,25,-38,204,40,-52,186,28,-12,224,17,-51,154,27,-34,242,29,-39,206,36,-46,182,23,-15,241,17,-57,152,27,-33,235,28,-32,208,33,-49,172,21,-13,229,13,-54,155,21,-35,244,29,-35,225,33,-49,165,20,-10,236,14,-52,158,22,-38,235,27,-31,215,26,-45,157,18,-17,234,15,-52,169,25,-39,237,31,-29,223,25,-52,159,20,-12,241,17,-51,161,24,-43,233,29,-26,216,22,-48,146,21,-21,238,18,-49,174,28,-44,231,34,-26,224,24,-54,153,24,-20,238,18,-47,172,28,-49,229,35,-25,216,19,-46,143,22,-26,245,22,-45,181,33,-46,225,39,-21,228,22,-54,145,27,-25,241,21,-39,185,34,-50,213,34,-19,215,17,-46,144,25,-32,250,28,-40,197,40,-44,203,38,-14,233,23,-52,152,34,-26,241,31,-31,192,36,-47,193,32,-20,222,15,-44,147,29,-34,247,35,-37,205,40,-46,186,34,-10,231,19,-55,155,33,-32,244,32,-30,206,38,-47,179,29,-15,223,14,-44,153,37,-31,215,38,-45,167,30,-15,238,17,-54,163,33,-38,238,36,-29,213,35,-49,159,26,-18,231,16,-49,164,30,-41,244,37,-29,226,32,-50,154,25,-13,241,14,-51,171,31,-45,229,35,-23,212,25,-45,150,21,-22,239,18,-48,175,29,-44,230,35,-24,228
37.25, 34145.83,34,-18,232,17,-53,145,22,-23,242,21,-39,191,30,-51,203,32,-16,219,12,-50,150,27,-29,244,30,-36,192,27,-48,196,30,-18,228,9,-53,146,24,-36,251,30,-33,201,33,-47,182,28,-21,227,8,-51,153,27,-39,246,32,-35,214,33,-47,178,35,-15,227,14,-54,165,32,-40,242,35,-26,202,28,-49,170,28,-23,226,11,-48,165,33,-45,246,40,-29,215,34,-48,163,34,-17,234,18,-50,168,36,-46,235,40,-21,217,33,-46,152,34,-23,230,20,-45,181,40,-43,224,38,-17,215,27,-49,155,33,-17,236,26,-40,185,41,-47,219,35,-12,224,27,-49,149,34,-20,237,28,-39,192,41,-45,208,33,-14,225,20,-51,148,28,-27,235,23,-37,195,37,-49,198,31,-14,229,19,-53,152,32,-23,242,28,-41,202,33,-49,192,22,-12,231,16,-52,147,29,-33,239,30,-33,209,39,-47,176,29,-13,226,13,-55,156,27,-36,244,29,-35,213,34,-49,170,25,-12,234,16,-52,158,30,-32,212,28,-45,159,20,-17,242,16,-53,158,26,-39,237,30,-30,226,28,-50,154,20,-14,232,13,-49,167,24,-42,235,31,-26,218,23,-50,151,21,-16,241,14,-50,169,23,-46,235,30,-29,221,19,-49,147,19,-22,245,20,-46,169,24,-47,230,33,-25,225,19,-48,143,23,-23,249,26,-45,179,28,-45,214,30,-24,225,13,-49,144,23,-29,248,28,-43,187,33,-46,211
37.21, 34135.00,32,-45,194,35,-15,229,17,-49,154,34,-32,245,37,-28,203,34,-45,183,32,-16,229,15,-48,156,32,-32,244,39,-30,212,33,-44,179,34,-12,228,16,-49,160,35,-39,237,39,-22,212,32,-46,172,36,-17,226,18,-46,166,37,-43,243,41,-23,217,34,-48,161,33,-18,225,17,-45,172,38,-47,232,40,-24,216,32,-48,159,33,-19,233,21,-48,175,37,-46,228,35,-23,222,28,-49,151,30,-23,228,18,-44,184,37,-49,222,36,-17,224,25,-53,151,29,-20,236,22,-40,185,33,-50,212,29,-15,224,19,-48,146,23,-24,238,22,-39,197,33,-47,207,32,-14,233,16,-54,148,24,-22,240,22,-35,196,30,-50,196,28,-16,218,10,-47,148,20,-33,244,27,-38,206,30,-47,193,30,-15,232,11,-55,153,23,-31,246,28,-35,201,27,-47,180,24,-21,222,9,-46,154,33,-34,209,32,-49,177,31,-16,233,12,-55,160,25,-39,240,31,-33,214,29,-48,166,25,-21,225,12,-51,165,27,-45,241,34,-28,215,28,-50,165,26,-20,236,17,-47,166,31,-44,238,37,-27,215,28,-44,149,23,-23,234,16,-48,174,31,-44,230,37,-23,233,30,-51,153,31,-13,238,23,-48,184,34,-44,225,38,-18,218,27,-41,144,28,-28,236,28,-36,186,39,-43,209,39,-17,230,25,-53,149,29,-20,246,27,-44,198,42,-44,201,34,-14,223,20,-50,145,28,-30,235,26,-36,198
37.19, 34144.16,30,-40,212,39,-44,173,30,-14,243,20,-60,162,31,-31,239,31,-31,215,33,-50,168,23,-17,225,13,-42,152,23,-41,240,33,-32,220,31,-45,160,24,-10,244,18,-61,169,30,-33,240,33,-27,225,28,-50,152,15,-19,231,13,-43,165,23,-46,227,32,-29,219,22,-46,150,21,-19,248,20,-56,175,27,-39,232,32,-27,229,20,-52,146,18,-19,235,16,-42,175,27,-50,222,35,-24,217,17,-44,143,19,-26,251,21,-49,185,28,-45,215,31,-20,229,16,-52,146,23,-29,242,23,-35,183,28,-48,206,30,-21,223,11,-49,148,25,-27,252,34,-43,198,30,-46,205,35,-17,230,14,-49,143,28,-33,246,32,-29,196,32,-45,187,34,-19,224,14,-46,156,40,-36,208,30,-47,186,32,-15,235,15,-51,153,32,-39,244,37,-25,203,34,-44,170,34,-21,227,15,-45,163,34,-41,243,41,-27,218,34,-50,167,38,-13,233,20,-50,171,38,-43,235,37,-20,214,30,-47,157,28,-24,227,17,-44,176,40,-46,232,43,-22,221,33,-51,158,34,-13,231,19,-49,184,38,-48,228,38,-17,218,31,-45,147,33,-24,232,23,-39,188,40,-44,209,34,-14,225,23,-54,155,32,-19,234,25,-42,198,38,-48,210,29,-12,223,19,-48,147,25,-29,234,23,-35,199,39,-48,193,29,-15,229,16,-54,153,22,-26,240,26,-40,205,32,-51,190,23,-14,231,14,-51,147,24,-34,239
37.17, 34151.66,21,-40,242,31,-33,219,30,-45,163,27,-15,233,14,-55,161,21,-41,240,28,-30,223,25,-51,159,22,-18,235,15,-50,164,26,-42,235,33,-28,218,23,-47,152,22,-20,237,17,-49,173,27,-44,233,34,-25,222,24,-50,149,23,-21,239,20,-44,177,34,-46,223,36,-23,223,23,-46,145,24,-24,240,24,-45,185,35,-45,213,37,-18,225,22,-53,150,31,-25,239,26,-38,184,36,-45,210,34,-17,222,18,-47,145,26,-29,245,30,-40,198,41,-43,198,35,-13,232,22,-53,151,31,-26,244,29,-33,202,36,-45,187,29,-17,223,16,-46,149,36,-36,206,38,-45,184,31,-14,236,19,-56,154,32,-32,248,36,-32,211,36,-48,173,27,-17,228,13,-46,155,30,-39,241,36,-31,213,36,-44,165,28,-14,238,16,-55,165,28,-37,243,33,-31,221,33,-49,159,25,-16,233,14,-47,161,27,-44,235,32,-27,218,27,-45,152,24,-16,242,19,-49,173,31,-41,232,34,-21,221,23,-50,151,20,-19,236,16,-43,173,26,-46,229,35,-24,218,21,-47,143,20,-24,249,21,-47,181,29,-46,218,32,-21,225,16,-51,144,22,-26,239,21,-41,186,30,-49,210,33,-23,218,13,-49,147,25,-29,250,30,-41,189,29,-47,203,29,-19,229,12,-54,147,25,-35,246,28,-37,198,33,-47,190,32,-20,223,10,-51,153,25,-32,245,31,-34,205,31,-50,190,34,-14,223,12,-49,152
37.29, 34155.83,17,-52,168,34,-39,237,38,-20,212,31,-48,164,33,-15,228,20,-44,173,40,-43,234,41,-20,214,28,-50,165,32,-16,231,20,-44,175,36,-47,232,36,-18,216,28,-46,154,34,-20,230,22,-43,182,40,-46,224,40,-17,224,28,-50,152,34,-18,232,22,-41,189,39,-50,213,34,-16,220,23,-47,150,31,-27,233,21,-36,190,36,-51,206,32,-17,229,22,-52,151,34,-23,236,27,-40,199,34,-50,200,23,-14,229,15,-51,146,27,-36,204,36,-43,182,22,-12,229,13,-55,155,23,-28,239,28,-36,208,35,-48,184,24,-11,228,13,-52,148,19,-32,240,24,-36,211,29,-48,172,20,-13,237,15,-54,156,23,-34,236,27,-34,217,27,-46,168,19,-16,230,13,-52,159,21,-42,243,31,-33,215,27,-46,161,20,-17,239,13,-54,155,19,-41,239,28,-33,227,25,-50,152,22,-17,234,17,-52,169,23,-42,239,35,-30,224,24,-47,150,22,-19,240,20,-48,173,26,-45,229,34,-27,225,23,-45,146,22,-24,236,21,-43,178,31,-47,219,36,-23,228,23,-51,147,27,-19,244,29,-49,191,36,-43,217,37,-19,228,21,-46,141,27,-29,236,27,-36,188,37,-43,200,37,-16,225,23,-50,150,30,-23,249,34,-41,203,36,-45,196,30,-14,234,21,-49,146,31,-30,239,32,-32,203,37,-41,180,32,-15,230,18,-51,157,33,-27,246,37,-37,212,35,-47,181,28,-12,231
37.33, 34155.83,25,-16,236,15,-51,162,31,-42,236,36,-28,216,31,-45,155,25,-15,239,16,-55,175,30,-38,236,34,-27,226,27,-49,150,22,-17,231,12,-44,170,25,-47,228,32,-23,219,22,-48,150,24,-16,247,19,-50,174,24,-42,226,29,-23,228,18,-48,141,22,-23,241,22,-40,181,29,-47,211,31,-19,224,15,-50,146,26,-45,191,28,-43,200,26,-24,227,10,-50,147,21,-31,237,26,-39,196,29,-48,201,34,-17,228,14,-57,154,29,-26,252,32,-41,200,27,-46,189,28,-23,220,7,-48,153,25,-41,245,34,-33,198,29,-46,184,34,-19,237,18,-54,154,31,-35,253,38,-34,214,31,-45,164,26,-22,228,12,-45,166,34,-39,235,43,-26,212,32,-45,170,35,-14,237,20,-52,169,34,-40,239,36,-22,218,31,-48,158,35,-19,225,20,-39,172,40,-46,226,40,-17,218,30,-48,155,32,-18,239,23,-49,185,36,-42,220,32,-19,223,26,-50,154,35,-22,228,26,-37,182,37,-48,218,36,-18,225,24,-48,146,31,-23,245,30,-43,197,39,-43,197,29,-16,224,19,-51,149,26,-31,235,30,-38,201,41,-44,191,33,-14,234,20,-55,154,31,-27,235,28,-34,205,34,-51,187,29,-14,222,13,-49,153,24,-38,244,27,-37,207,30,-45,176,23,-16,242,15,-56,153,22,-30,233,24,-33,221,26,-52,169,18,-10,232,9,-54,161,21,-36,241,29,-33,226,27,-50,161
37.29, 34150.00,22,-52,151,27,-21,242,21,-45,167,24,-49,225,31,-30,223,16,-45,143,20,-28,247,21,-51,180,23,-43,220,30,-25,229,15,-55,155,27,-17,242,27,-44,181,23,-44,218,31,-23,222,11,-44,146,25,-30,246,34,-43,206,41,-19,225,17,-50,149,32,-29,247,34,-34,193,36,-44,199,41,-17,219,17,-41,147,35,-37,247,38,-30,201,38,-45,185,42,-14,228,16,-50,157,34,-34,244,35,-30,205,32,-47,180,31,-21,225,11,-44,156,33,-41,244,38,-29,213,34,-43,168,31,-13,233,13,-57,170,31,-33,242,36,-28,220,30,-47,163,28,-15,226,12,-46,168,30,-44,234,37,-24,213,28,-44,156,31,-13,237,23,-51,178,38,-41,233,40,-21,228,30,-48,149,31,-19,231,18,-38,175,33,-47,216,37,-20,218,24,-46,149,31,-25,239,27,-46,186,36,-47,218,38,-20,230,22,-52,144,25,-27,236,17,-38,190,29,-49,200,30,-19,223,12,-51,150,22,-23,244,23,-46,198,26,-44,203,25,-14,225,10,-52,147,23,-31,242,27,-30,199,29,-44,187,26,-18,229,7,-49,153,20,-30,253,32,-39,212,28,-45,180,26,-17,232,11,-50,156,28,-36,234,34,-28,209,30,-49,171,35,-18,228,13,-53,164,30,-39,242,34,-30,217,28,-50,166,31,-20,231,11,-48,163,31,-48,234,25,-47,156,29,-22,235,17,-53,177,33,-44,236,37,-28,224,24,-50,150
37.25, 34154.16,38,-15,230,25,-51,152,31,-17,236,26,-35,189,36,-44,203,35,-14,222,20,-45,148,32,-22,240,38,-44,201,35,-14,228,19,-46,146,28,-32,247,32,-34,197,37,-41,181,31,-19,234,17,-51,151,33,-31,244,35,-39,215,36,-47,181,30,-13,225,13,-52,153,28,-39,250,34,-34,207,36,-44,168,26,-18,233,11,-52,161,26,-39,244,32,-36,216,30,-43,160,22,-16,237,14,-54,166,30,-38,239,36,-30,222,31,-47,156,25,-15,237,14,-49,167,27,-43,231,32,-25,215,23,-44,149,19,-20,243,18,-50,172,26,-41,227,31,-25,230,22,-51,147,23,-18,243,21,-43,172,25,-45,218,29,-24,227,16,-47,145,23,-18,244,24,-46,185,26,-45,218,30,-21,222,10,-52,145,20,-27,244,24,-39,185,28,-46,206,34,-20,225,12,-52,150,25,-28,249,28,-41,195,24,-46,197,30,-22,224,9,-45,149,27,-36,248,36,-34,195,31,-43,186,34,-19,232,13,-54,158,31,-32,249,39,-33,209,29,-44,179,30,-18,222,14,-44,159,34,-39,239,41,-24,206,34,-43,169,37,-15,234,22,-53,171,36,-37,238,38,-24,211,27,-48,164,31,-22,226,19,-38,171,39,-44,230,28,-48,161,33,-16,231,19,-50,179,33,-47,230,35,-21,215,25,-47,153,29,-23,234,21,-44,180,35,-45,222,36,-21,229,26,-49,150,32,-18,240,26,-43,194,37,-46,206,30,-16,218
37.25, 34165.00,26,-12,226,15,-48,145,25,-34,240,27,-39,211,34,-44,180,24,-14,238,15,-57,152,25,-29,237,23,-34,211,25,-51,172,17,-14,230,12,-51,157,23,-39,246,31,-38,216,26,-44,162,17,-14,241,13,-56,163,23,-37,235,30,-29,212,24,-47,155,19,-20,236,14,-51,165,24,-41,242,35,-34,225,21,-50,155,20,-18,242,15,-51,163,22,-44,234,33,-29,217,22,-44,144,24,-23,243,23,-48,175,26,-43,229,36,-25,228,19,-51,147,26,-24,241,25,-40,179,29,-47,219,35,-26,218,14,-44,144,26,-28,250,32,-46,188,32,-43,212,35,-20,231,15,-53,150,31,-25,243,32,-33,190,32,-44,200,36,-21,215,11,-41,151,29,-34,249,36,-36,199,34,-43,193,39,-15,237,19,-53,149,32,-30,244,35,-31,206,33,-47,180,36,-20,221,16,-41,156,34,-39,246,40,-31,206,34,-45,172,31,-16,237,18,-53,165,36,-37,239,38,-28,217,34,-46,165,30,-18,226,14,-47,165,31,-42,239,37,-25,218,33,-47,159,32,-15,235,20,-45,171,35,-43,233,36,-23,218,27,-21,233,18,-46,179,35,-44,226,38,-22,222,24,-50,152,27,-17,239,20,-42,182,31,-47,218,30,-17,218,15,-45,145,22,-26,242,23,-41,188,33,-43,213,33,-18,226,13,-53,146,24,-21,241,21,-40,198,31,-48,202,30,-17,213,7,-50,151,22,-34,244,28,-38,195,31,-46,196
37.41, 34140.00,27,-46,179,23,-17,235,13,-55,158,27,-40,245,36,-29,211,30,-48,170,25,-21,229,10,-50,154,23,-42,244,35,-33,221,29,-48,157,29,-16,234,16,-53,175,32,-40,238,36,-24,215,26,-48,156,26,-20,234,21,-45,177,38,-43,228,39,-21,220,27,-46,154,29,-21,236,24,-43,181,41,-44,217,35,-19,224,24,-51,154,31,-20,236,25,-45,190,41,-43,218,38,-16,222,23,-49,148,31,-27,236,26,-36,185,38,-45,206,33,-17,223,20,-47,148,31,-22,249,34,-46,200,40,-44,201,32,-14,231,17,-50,146,29,-29,240,29,-33,198,37,-44,186,28,-15,225,14,-51,152,27,-28,248,32,-41,211,37,-47,184,24,-9,237,17,-52,151,29,-32,243,31,-30,206,35,-43,162,21,-16,231,16,-53,164,30,-33,239,36,-34,214,32,-51,173,22,-12,240,15,-55,156,26,-39,240,29,-33,210,28,-44,155,18,-21,235,13,-52,166,26,-41,237,33,-36,220,18,-13,241,13,-54,161,19,-42,237,27,-27,221,21,-50,148,21,-19,238,17,-47,172,24,-44,232,32,-27,220,18,-49,151,21,-21,247,24,-44,170,25,-44,224,30,-26,227,15,-48,144,18,-21,246,23,-47,181,27,-44,222,35,-21,227,17,-49,145,24,-25,241,25,-37,187,31,-47,212,36,-22,218,13,-44,143,23,-31,250,32,-41,187,32,-45,205,34,-20,235,17,-54,149,29,-27,242,29,-38,194
37.45, 34145.00,34,-29,202,36,-43,180,36,-16,225,19,-47,157,34,-33,243,39,-30,211,32,-46,176,30,-14,232,20,-46,158,35,-38,238,38,-22,211,34,-45,163,26,-16,235,18,-52,171,34,-38,238,38,-29,223,30,-51,160,27,-14,230,14,-49,171,31,-46,235,36,-24,215,26,-42,152,24,-19,237,16,-52,179,30,-43,232,33,-24,223,24,-49,152,22,-22,232,16,-42,174,26,-47,223,32,-21,215,19,-44,145,21,-20,251,25,-49,186,29,-41,216,31,-18,233,18,-50,142,23,-24,237,22,-35,188,31,-45,196,30,-17,217,12,-50,155,22,-27,246,29,-43,197,26,-48,204,27,-19,232,10,-53,143,21,-30,239,24,-35,198,25,-47,185,26,-18,228,11,-50,153,23,-30,252,34,-42,212,29,-44,179,25,-16,226,12,-52,159,27,-39,237,35,-27,202,30,-21,229,12,-54,165,30,-37,248,38,-35,213,27,-46,169,27,-19,228,15,-46,164,33,-44,234,41,-23,208,27,-44,161,30,-19,232,18,-49,171,32,-41,242,41,-24,218,31,-47,152,30,-18,236,21,-44,176,37,-45,224,36,-23,220,25,-44,153,30,-19,235,26,-47,185,38,-42,220,36,-17,219,24,-50,151,29,-20,235,26,-39,186,37,-44,215,35,-16,227,23,-49,145,32,-22,241,29,-40,196,38,-45,198,30,-15,226,21,-51,149,30,-26,239,31,-39,200,42,-46,195,28,-14,233,21,-53,151,31,-27,235
37.33, 34131.66,25,-36,239,25,-31,207,31,-46,167,20,-15,235,17,-53,161,28,-32,238,29,-33,223,27,-53,169,17,-9,234,12,-53,159,21,-39,236,30,-29,209,24,-43,157,18,-15,242,17,-54,163,22,-37,240,30,-30,228,21,-54,155,18,-14,241,16,-48,164,23,-44,231,29,-30,215,19,-43,146,17,-22,240,18,-53,173,26,-43,234,34,-27,233,24,-55,149,22,-15,239,18,-48,177,27,-48,224,30,-25,218,18,-43,143,21,-28,238,26,-46,185,31,-45,225,39,-19,233,24,-55,147,29,-22,245,26,-39,180,29,-47,210,33,-23,221,15,-40,144,27,-30,245,33,-40,192,34,-45,209,40,-12,231,20,-54,149,30,-26,246,34,-32,194,33,-23,219,16,-42,149,30,-32,248,39,-39,202,36,-44,188,31,-17,241,21,-54,151,31,-33,244,36,-35,208,37,-46,174,28,-20,224,15,-50,155,32,-40,243,37,-37,214,37,-43,173,29,-13,241,19,-59,166,31,-36,238,30,-20,212,32,-51,163,31,-14,229,19,-40,165,32,-39,240,35,-27,220,27,-47,159,23,-12,247,23,-51,169,30,-38,235,32,-22,218,25,-47,144,18,-21,236,15,-43,169,27,-44,223,32,-23,226,20,-51,150,22,-13,245,18,-54,182,25,-42,227,30,-21,223,18,-49,144,22,-23,238,21,-37,178,29,-48,213,31,-22,224,16,-47,146,24,-27,247,25,-44,185,26,-49,206,27,-22,228,12,-52,145
37.37, 34125.00,10,-51,154,25,-34,248,34,-33,205,31,-46,184,29,-16,230,11,-53,158,26,-36,247,36,-31,204,28,-48,175,24,-20,233,16,-49,160,30,-37,242,39,-28,213,31,-46,165,30,-16,230,19,-51,168,34,-39,234,39,-22,213,29,-50,165,33,-18,230,23,-46,170,37,-45,237,39,-20,213,28,-48,156,33,-20,234,25,-42,176,42,-45,223,38,-17,217,25,-46,151,33,-20,235,26,-42,188,42,-43,217,34,-17,222,21,-51,151,29,-22,237,26,-37,188,40,-47,207,32,-15,226,21,-48,150,29,-23,239,28,-41,198,38,-45,201,18,-50,151,30,-27,239,30,-34,202,40,-46,187,26,-15,225,15,-53,150,25,-33,240,27,-39,212,36,-48,181,24,-14,233,16,-54,155,28,-34,233,28,-32,209,31,-50,171,22,-16,235,15,-54,158,26,-36,238,30,-35,223,30,-53,165,20,-12,232,13,-51,162,23,-41,238,28,-30,213,22,-46,156,14,-17,241,18,-51,165,24,-39,236,32,-26,227,19,-51,147,16,-13,243,16,-49,169,24,-44,229,29,-25,220,18,-46,144,19,-25,243,21,-45,178,24,-47,220,32,-22,227,14,-54,152,21,-20,244,25,-43,178,24,-47,218,31,-23,229,14,-46,140,21,-29,245,27,-40,190,28,-44,202,34,-20,228,14,-50,149,30,-28,243,34,-35,196,29,-47,196,33,-18,224,11,-50,153,31,-34,248,36,-31,199,31,-46,186,35,-17,229
37.25, 34138.33,34,-16,225,16,-44,169,35,-46,240,37,-20,212,30,-46,162,36,-17,233,21,-45,176,40,-43,226,34,-18,220,27,-53,163,36,-17,220,18,-37,177,38,-50,228,34,-18,214,25,-48,153,29,-22,238,24,-42,187,39,-46,212,28,-16,230,21,-52,151,25,-22,231,22,-37,196,37,-47,201,27,-14,223,19,-52,152,25,-24,239,24,-40,199,29,-48,193,21,-17,230,15,-53,151,26,-27,233,27,-36,204,33,-49,188,23,-12,229,23,-30,240,26,-35,212,30,-49,174,20,-16,227,13,-49,156,22,-38,239,30,-34,216,29,-47,165,20,-13,237,15,-55,159,22,-38,243,29,-32,221,27,-48,159,19,-16,234,17,-48,163,21,-42,236,27,-30,220,20,-47,154,17,-20,243,20,-52,171,26,-41,231,30,-30,225,16,-49,150,18,-20,239,20,-47,179,29,-44,231,36,-23,217,19,-44,145,21,-23,248,26,-45,183,30,-44,219,36,-21,225,22,-47,146,28,-30,239,33,-37,184,34,-45,208,39,-20,231,19,-48,144,28,-24,244,31,-40,202,35,-47,200,41,-15,221,19,-44,149,33,-35,239,35,-30,196,35,-47,186,36,-19,229,19,-50,159,37,-34,247,39,-34,210,35,-47,184,30,-16,228,16,-47,154,32,-41,238,38,-26,213,35,-46,166,35,-15,232,19,-54,169,34,-37,240,36,-27,218,29,-51,165,29,-16,226,17,-42,167,32,-47,233,35,-20,216,28,-45,156
37.43, 34125.83,19,-50,150,23,-20,236,21,-46,191,32,-49,219,30,-15,229,19,-52,141,21,-24,239,20,-36,191,31,-47,193,27,-19,224,13,-50,150,21,-25,240,28,-43,203,29,-48,196,26,-12,233,15,-57,150,26,-31,240,26,-32,199,26,-48,180,22,-22,226,10,-49,155,25,-38,241,33,-36,216,29,-49,176,25,-14,234,23,-38,245,29,-29,211,29,-46,164,23,-19,232,15,-47,167,28,-42,241,35,-31,220,25,-51,160,21,-19,238,18,-50,167,29,-44,233,32,-28,222,25,-48,152,26,-20,234,21,-50,180,32,-43,228,34,-22,223,23,-50,150,26,-22,236,25,-41,183,41,-43,215,39,-17,220,22,-47,146,26,-23,239,26,-39,191,37,-43,209,38,-14,228,22,-49,147,30,-26,242,33,-35,192,37,-44,198,35,-18,225,19,-44,148,28,-34,246,35,-36,199,40,-42,184,30,-17,235,19,-52,147,31,-31,241,33,-37,210,36,-48,180,30,-11,234,18,-52,154,28,-35,242,33,-34,215,36,-47,167,27,-14,230,15,-49,159,28,-38,241,36,-32,217,34,-46,161,24,-13,239,19,-56,169,32,-38,239,34,-25,219,27,-49,154,19,-23,235,13,-43,161,25,-44,230,33,-29,223,26,-43,147,23,-17,245,22,-53,180,28,-42,228,31,-21,225,19,-51,145,19,-21,237,18,-38,176,29,-47,218,33,-23,218,12,-44,144,16,-26,250,24,-48,185,28,-44,213,31,-20,236
37.45, 34115.00,25,-20,233,10,-56,152,23,-34,244,27,-32,201,28,-50,185,29,-20,227,13,-47,156,29,-37,245,35,-34,209,27,-49,176,25,-17,234,15,-52,162,33,-40,242,38,-25,206,30,-49,167,28,-20,229,14,-45,163,40,-25,221,32,-48,161,34,-14,234,20,-50,175,36,-43,229,34,-18,215,27,-51,157,32,-21,231,25,-40,179,43,-42,223,39,-16,221,27,-50,153,30,-20,232,23,-42,190,44,-47,219,42,-14,216,25,-50,153,33,-23,236,25,-38,191,39,-48,211,31,-16,219,19,-49,150,28,-29,240,29,-37,195,43,-45,197,32,-14,229,22,-54,152,30,-26,237,26,-38,204,35,-49,192,23,-12,230,17,-52,150,25,-32,236,27,-36,212,35,-46,179,21,-11,226,11,-55,155,24,-32,244,31,-35,212,38,-48,175,24,-7,234,17,-51,157,25,-34,235,28,-27,214,28,-47,164,22,-13,232,17,-48,158,26,-40,237,30,-28,220,24,-51,154,18,-14,246,16,-53,164,26,-38,231,31,-27,225,23,-50,149,17,-20,235,16,-47,170,26,-45,233,31,-28,224,20,-50,150,14,-21,239,11,-54,174,17,-46,231,29,-30,215,17,-49,147,17,-23,247,23,-54,180,27,-40,225,31,-33,225,16,-49,150,20,-26,237,26,-40,182,27,-47,219,39,-21,219,17,-39,145,31,-29,248,31,-36,186,29,-44,208,20,-45,146,35,-30,246,33,-30,190,33,-45,192,40,-18,231
37.27, 34097.50,26,-40,174,36,-16,235,15,-49,160,32,-32,233,36,-31,213,24,-47,180,33,-16,231,18,-50,155,28,-35,241,30,-44,171,33,-13,226,22,-42,166,35,-40,241,43,-25,219,34,-43,158,33,-14,232,25,-41,178,39,-42,226,38,-19,214,32,-44,153,31,-22,231,26,-38,178,42,-45,218,36,-19,227,25,-53,158,31,-22,233,22,-41,182,36,-49,218,32,-22,216,15,-48,147,21,-27,239,20,-42,188,31,-49,210,28,-22,226,13,-52,148,20,-22,240,17,-46,194,26,-47,209,23,-18,223,10,-50,145,15,-28,240,23,-39,198,31,-44,197,30,-14,228,14,-50,149,23,-25,236,26,-31,200,30,-48,196,34,-14,224,15,-44,150,24,-36,245,31,-32,206,29,-46,179,28,-16,229,14,-49,157,29,-36,241,32,-29,210,29,-50,177,25,-17,229,12,-52,159,28,-42,243,33,-31,215,27,-46,164,23,-22,229,13,-51,167,29,-43,240,36,-34,220,26,-50,162,26,-19,233,15,-53,173,30,-46,233,35,-28,216,23,-47,157,26,-26,228,19,-42,176,35,-45,225,40,-22,217,27,-51,157,33,-21,240,31,-44,181,41,-43,220,39,-16,219,25,-42,149,30,-25,237,33,-32,184,41,-43,207,38,-16,230,37,-21,234,33,-36,195,37,-46,200,29,-13,227,20,-48,151,32,-30,237,36,-34,201,40,-44,192,31,-14,229,15,-54,155,30,-25,243,34,-35,209,37,-47,183
37.55, 34088.33,33,-51,166,27,-14,229,18,-43,162,31,-43,237,36,-30,217,26,-43,155,16,-19,238,17,-48,170,29,-43,231,33,-26,220,23,-49,152,16,-21,241,19,-48,174,28,-44,225,33,-27,226,20,-49,145,17,-22,242,21,-46,180,27,-45,215,28,-22,220,12,-50,146,19,-27,246,26,-42,189,32,-43,206,34,-19,225,12,-51,147,20,-30,244,27,-38,194,30,-47,200,31,-20,230,12,-52,148,23,-33,244,33,-37,202,34,-46,189,32,-19,223,11,-49,158,24,-37,245,33,-32,201,26,-45,181,28,-20,227,13,-50,160,31,-38,248,38,-28,204,27,-46,176,27,-19,229,17,-50,163,33,-40,240,40,-27,212,28,-47,166,30,-19,233,22,-50,172,41,-41,235,43,-23,214,32,-49,158,35,-23,227,23,-41,177,46,-49,225,45,-22,213,30,-49,157,35,-26,235,25,-43,179,42,-49,223,40,-21,226,30,-48,149,36,-24,238,27,-36,188,39,-47,202,29,-14,223,21,-48,151,35,-24,235,33,-34,201,45,-45,197,31,-9,229,18,-54,155,27,-23,244,30,-32,205,35,-46,181,22,-8,227,22,-28,237,30,-34,219,31,-44,179,20,-14,238,14,-51,158,19,-27,234,29,-38,216,25,-44,168,11,-18,230,15,-49,159,22,-38,233,32,-34,224,31,-50,166,25,-14,238,20,-56,164,27,-40,231,35,-29,216,28,-48,155,23,-25,233,20,-46,163,28,-45,230,35,-31,222
37.55, 34093.33,32,-24,225,15,-50,144,15,-27,248,22,-46,183,26,-45,213,27,-24,234,14,-49,143,18,-22,243,24,-43,196,27,-46,208,33,-18,224,16,-47,147,27,-30,244,35,-31,191,31,-45,198,32,-17,230,13,-50,151,29,-28,245,36,-34,203,33,-47,194,35,-16,225,16,-42,152,33,-37,243,40,-27,202,35,-46,185,37,-14,230,17,-50,154,33,-36,248,38,-28,210,33,-46,173,30,-19,227,17,-44,163,33,-40,240,41,-26,214,36,-48,171,36,-13,231,20,-49,170,38,-42,236,39,-21,211,32,-49,157,32,-21,227,21,-42,173,44,-45,226,41,-20,222,33,-51,164,36,-13,235,22,-45,179,37,-50,223,27,-15,220,24,-48,150,29,-25,225,23,-36,187,43,-46,212,34,-14,224,22,-57,157,27,-17,243,24,-45,191,35,-50,211,25,-14,221,14,-46,141,18,-29,237,23,-35,195,37,-43,201,30,-14,229,15,-56,151,19,-21,241,25,-38,202,31,-50,196,26,-12,220,12,-48,144,31,-34,203,37,-44,183,30,-14,233,16,-53,152,24,-34,241,29,-32,214,34,-51,172,25,-18,222,10,-47,158,24,-41,240,32,-39,213,25,-48,171,18,-17,241,14,-59,165,26,-37,240,28,-28,214,19,-53,163,15,-22,226,9,-46,166,26,-44,242,36,-30,221,25,-49,160,19,-13,244,19,-55,174,26,-42,229,30,-22,217,21,-48,150,20,-24,231,24,-41,176,39,-42,228
37.41, 34092.50,41,-38,196,37,-13,238,20,-58,152,30,-18,236,31,-37,202,41,-48,202,37,-12,222,22,-44,145,27,-33,243,33,-36,207,38,-43,182,30,-12,233,19,-53,154,32,-33,238,32,-29,208,39,-49,176,28,-14,229,19,-52,158,32,-38,242,34,-32,217,36,-49,168,25,-17,232,17,-53,165,33,-42,243,36,-30,212,31,-47,161,21,-18,236,19,-48,162,30,-42,238,37,-29,222,30,-45,153,21,-21,237,18,-47,173,32,-41,228,39,-24,225,27,-49,149,23,-18,236,19,-44,179,29,-45,223,32,-16,220,20,-47,146,23,-22,236,23,-33,180,31,-45,214,29,-17,227,13,-49,148,18,-21,244,23,-42,190,25,-48,210,25,-18,225,10,-51,146,15,-30,245,24,-38,193,25,-46,197,22,-18,233,12,-57,153,24,-26,246,32,-39,209,32,-49,189,25,-21,218,5,-50,154,21,-41,245,31,-33,203,27,-19,233,18,-53,167,33,-37,243,37,-28,211,28,-53,171,24,-20,230,16,-43,161,35,-47,237,40,-26,208,29,-45,158,26,-21,239,23,-48,171,34,-43,232,37,-21,230,30,-53,158,29,-13,231,21,-42,181,35,-44,221,35,-15,214,25,-45,152,29,-19,237,30,-41,186,39,-42,219,36,-15,234,24,-52,151,24,-19,233,25,-36,191,40,-47,206,34,-12,221,24,-45,147,27,-28,239,32,-37,207,40,-45,195,31,-12,234,24,-56,155,31,-26,240,34,-30,201
37.35, 34095.00,32,-32,212,33,-48,166,21,-16,228,14,-49,160,25,-42,236,33,-30,222,29,-50,159,21,-11,240,18,-56,174,28,-39,230,27,-20,214,21,-51,153,14,-22,233,15,-40,170,27,-44,232,34,-24,228,21,-49,152,18,-18,243,19,-43,174,25,-48,220,27,-20,221,15,-46,145,16,-26,242,21,-39,176,24,-48,219,28,-19,238,14,-54,145,21,-22,245,26,-39,192,31,-48,205,30,-22,217,9,-47,150,20,-36,245,28,-38,191,28,-49,199,29,-22,231,14,-53,152,27,-35,245,31,-35,199,30,-49,188,28,-21,225,10,-49,157,28,-37,246,37,-30,209,33,-48,182,32,-16,227,14,-48,160,33,-41,243,39,-23,206,36,-49,171,33,-17,231,19,-48,167,35,-40,236,38,-23,218,33,-52,173,21,-44,171,40,-48,236,38,-17,207,29,-49,162,29,-20,235,26,-40,176,41,-43,224,34,-18,225,28,-53,160,33,-12,230,26,-38,182,40,-49,222,34,-12,218,25,-46,153,28,-22,232,26,-37,187,41,-45,209,29,-16,226,20,-52,150,25,-24,234,26,-40,199,43,-45,201,29,-11,222,20,-54,155,26,-24,234,27,-35,199,39,-49,203,29,-13,224,18,-49,144,22,-30,240,23,-36,202,37,-49,184,23,-14,233,17,-53,153,24,-29,235,24,-37,209,34,-51,182,21,-9,231,16,-53,153,24,-31,238,25,-33,216,31,-52,174,15,-12,229,11,-51,152,19,-37,236
37.37, 34089.16,23,-44,233,29,-31,216,22,-45,154,16,-19,240,16,-55,169,26,-41,236,32,-28,233,26,-55,155,19,-17,233,16,-45,171,25,-48,231,31,-26,218,23,-44,143,23,-25,241,25,-46,182,34,-44,221,32,-17,227,21,-58,153,25,-20,241,28,-40,184,39,-45,213,34,-18,219,17,-43,145,26,-28,239,30,-35,191,41,-44,207,34,-12,225,18,-53,151,26,-25,245,30,-35,199,41,-46,198,31,-14,225,19,-46,150,31,-32,241,35,-35,202,41,-44,188,31,-16,229,18,-52,154,29,-32,242,34,-34,208,40,-49,188,31,-9,222,17,-47,151,28,-38,246,37,-29,210,38,-45,172,28,-12,236,34,-34,237,36,-27,215,35,-51,171,24,-15,227,15,-43,159,32,-46,235,35,-25,214,32,-48,161,24,-15,239,18,-48,165,28,-43,238,31,-22,226,28,-52,153,21,-17,233,13,-41,171,28,-48,227,30,-24,218,21,-46,151,18,-20,242,18,-47,176,29,-44,227,28,-20,227,17,-53,148,17,-21,238,17,-38,175,28,-47,220,29,-20,221,13,-47,144,18,-26,249,23,-44,190,29,-46,211,26,-19,225,11,-55,149,20,-28,241,25,-33,188,33,-50,205,33,-21,222,13,-49,147,21,-32,250,29,-41,200,31,-49,194,27,-20,226,10,-53,151,25,-35,244,33,-32,199,34,-48,189,30,-18,230,13,-51,155,27,-36,246,33,-29,212,31,-49,179,27,-17,226,14,-46,163
37.43, 34090.00,26,-36,164,38,-43,230,39,-17,219,29,-48,158,31,-15,235,27,-44,178,43,-43,226,38,-17,224,30,-50,153,31,-20,227,23,-38,185,46,-47,213,36,-12,214,25,-52,157,26,-23,238,28,-37,191,43,-50,209,29,-14,228,21,-52,149,25,-27,229,23,-37,196,41,-47,199,28,-11,226,23,-54,154,28,-24,236,26,-35,205,35,-53,195,23,-8,228,16,-50,150,26,-29,231,26,-28,199,35,-47,183,23,-10,229,15,-53,152,23,-28,240,26,-33,218,33,-54,179,21,-8,232,11,-53,151,25,-32,209,31,-47,165,19,-18,231,12,-53,162,22,-39,242,29,-33,223,28,-55,165,14,-13,239,15,-53,160,20,-43,232,24,-30,218,24,-47,154,15,-23,239,17,-51,169,21,-44,230,26,-26,233,23,-59,154,18,-17,237,18,-48,175,26,-47,226,29,-26,217,17,-47,152,22,-24,244,27,-45,177,28,-44,223,27,-19,232,19,-55,153,23,-20,239,27,-36,181,31,-48,218,32,-21,221,16,-43,144,23,-27,244,30,-37,190,36,-45,213,37,-15,233,21,-54,150,29,-24,242,31,-34,196,34,-48,198,30,-19,223,14,-45,149,29,-32,242,37,-34,202,39,-45,195,33,-11,235,21,-55,155,33,-32,247,37,-28,204,37,-47,182,30,-17,221,17,-42,151,32,-40,243,39,-29,208,38,-47,173,30,-12,241,22,-56,162,35,-36,238,32,-26,216,34,-51,167,28,-17,223
37.41, 34074.16,19,-22,229,16,-40,173,34,-43,225,32,-22,223,25,-54,159,23,-13,238,19,-48,177,29,-49,229,27,-16,220,20,-49,142,18,-25,237,17,-37,181,30,-47,217,30,-18,228,16,-54,150,21,-21,244,25,-39,188,31,-47,207,26,-16,221,9,-47,147,18,-30,243,26,-37,189,29,-47,204,26,-19,232,11,-54,148,21,-29,245,26,-33,197,29,-48,192,24,-19,223,8,-48,151,22,-34,246,30,-50,190,26,-14,231,13,-53,159,26,-36,244,31,-29,203,30,-49,179,26,-22,227,15,-48,159,30,-38,238,34,-28,218,32,-52,175,31,-12,229,19,-51,172,35,-43,236,34,-19,207,28,-51,170,26,-24,224,19,-38,164,39,-44,239,43,-23,220,31,-48,161,30,-12,234,20,-48,179,37,-46,230,36,-14,219,29,-45,154,32,-25,228,26,-35,179,41,-44,215,38,-16,220,24,-54,159,31,-19,237,26,-43,185,37,-50,221,30,-14,227,26,-48,144,30,-26,227,25,-32,195,42,-44,200,33,-14,222,21,-52,153,27,-23,240,28,-40,204,38,-51,199,25,-12,229,19,-50,150,27,-33,232,28,-33,197,36,-47,186,23,-15,233,16,-55,151,25,-30,240,29,-36,220,39,-53,180,21,-8,226,11,-53,153,24,-36,234,27,-29,207,33,-47,172,20,-13,233,15,-54,158,23,-33,239,26,-31,226,29,-55,165,16,-12,228,11,-46,160,21,-43,233,27,-32,209,23,-45,164
37.25, 34092.50,16,-45,151,16,-22,249,25,-52,178,27,-41,226,30,-23,233,20,-57,154,19,-22,235,22,-36,174,26,-47,215,30,-26,219,16,-46,150,25,-24,247,34,-46,186,31,-47,219,33,-17,234,16,-53,142,23,-30,241,30,-34,190,38,-43,197,39,-21,222,18,-44,148,28,-31,248,36,-38,206,36,-11,231,20,-52,152,33,-32,236,31,-23,197,33,-48,187,36,-17,228,19,-45,154,35,-33,242,39,-30,215,36,-49,179,31,-11,229,14,-48,156,32,-42,240,38,-26,207,35,-45,168,30,-16,228,19,-46,164,33,-38,241,38,-26,226,35,-52,164,30,-10,228,16,-46,170,33,-48,230,34,-20,212,27,-46,154,24,-23,229,17,-43,176,35,-45,229,36,-19,225,28,-55,161,29,-17,235,20,-36,171,29,-52,225,27,-19,219,22,-42,141,20,-27,240,24,-39,183,34,-45,208,29,-16,237,19,-58,156,23,-16,237,22,-38,187,29,-50,208,23,-16,216,9,-45,145,17,-32,243,26,-39,193,33,-45,201,28,-16,233,14,-58,152,23,-26,242,24,-34,201,29,-51,191,23,-20,220,8,-48,150,20,-36,240,28,-34,205,31,-49,187,28,-13,231,13,-57,158,26,-37,244,29,-28,210,29,-51,176,22,-22,227,10,-48,158,29,-42,241,36,-28,218,36,-50,167,28,-16,229,15,-52,172,30,-44,237,33,-22,213,29,-51,163,26,-20,226,16,-43,171,34,-46,238,39,-21,220
37.27, 34085.00,40,-14,227,27,-55,157,32,-17,237,29,-37,189,41,-50,209,31,-15,222,21,-46,142,26,-31,235,30,-35,203,45,-42,192,34,-10,232,22,-61,164,34,-22,232,31,-30,205,40,-55,192,16,-44,148,23,-38,240,30,-36,208,40,-46,180,26,-9,242,22,-61,162,33,-28,236,32,-27,218,36,-54,174,20,-11,214,10,-42,157,23,-44,239,32,-28,208,32,-46,163,17,-15,246,19,-60,167,28,-35,234,29,-25,228,29,-57,160,17,-15,227,12,-42,161,23,-48,230,28,-27,225,24,-48,147,14,-21,244,19,-50,180,30,-43,223,28,-21,222,18,-54,150,15,-21,236,17,-39,177,26,-50,222,28,-19,225,15,-51,147,18,-24,247,25,-40,183,27,-47,216,27,-20,227,12,-49,145,20,-31,244,26,-36,188,30,-46,202,30,-21,231,14,-51,151,25,-27,244,31,-37,198,27,-50,199,27,-19,227,11,-52,153,27,-36,242,35,-29,200,35,-48,188,33,-17,219,13,-46,159,30,-37,245,37,-29,204,32,-49,184,32,-14,231,18,-46,154,33,-40,235,37,-23,210,34,-48,172,35,-16,225,21,-45,167,40,-41,238,41,-21,219,33,-51,171,33,-13,227,22,-43,172,38,-47,229,34,-14,206,28,-49,161,29,-21,232,28,-40,176,45,-44,225,39,-17,229,28,-54,161,30,-14,228,40,-50,221,34,-11,219,23,-46,149,26,-23,229,22,-37,186,37,-47,211,29,-16,230
37.43, 34090.00,39,-49,196,27,-11,231,17,-54,152,22,-30,230,20,-30,202,33,-51,183,20,-14,225,20,-32,239,26,-38,220,36,-53,181,21,-7,237,14,-57,156,19,-36,235,21,-28,213,29,-52,169,15,-17,227,12,-48,154,19,-39,238,27,-36,226,27,-54,165,16,-9,243,15,-57,163,20,-40,236,24,-27,221,24,-50,155,13,-21,230,17,-47,167,26,-44,235,34,-27,227,25,-52,155,18,-14,243,19,-52,173,27,-45,230,29,-23,225,25,-49,147,21,-23,232,23,-41,177,34,-44,224,37,-17,231,25,-54,152,25,-17,239,28,-43,185,33,-46,218,32,-18,221,22,-43,144,25,-30,239,32,-35,188,41,-43,205,38,-14,231,21,-51,149,27,-21,244,33,-37,201,37,-49,197,33,-13,221,16,-44,147,27,-34,240,32,-32,197,38,-45,188,32,-15,239,21,-55,152,33,-26,237,34,-32,210,38,-52,190,30,-10,224,18,-44,147,29,-41,247,35,-31,216,40,-46,166,27,-13,234,13,-53,162,30,-38,239,34,-28,213,35,-51,169,23,-12,233,19,-49,158,28,-42,241,30,-26,226,33,-51,157,23,-15,235,19,-45,164,30,-43,230,32,-26,218,26,-47,154,16,-17,236,18,-51,173,30,-22,227,22,-53,150,18,-17,239,19,-41,173,27,-46,221,27,-22,222,16,-47,147,15,-23,241,19,-43,183,30,-47,219,30,-17,222,17,-53,145,18,-25,238,18,-37,183,29,-50,212
37.37, 34091.66,34,-49,190,28,-16,229,11,-55,154,26,-29,248,32,-34,208,31,-53,193,27,-16,223,8,-47,150,25,-41,245,33,-30,204,35,-47,179,31,-16,229,15,-54,164,33,-36,245,40,-28,215,33,-52,182,32,-12,226,18,-43,157,33,-46,235,36,-18,210,32,-48,169,35,-16,228,23,-44,170,40,-42,233,39,-20,222,33,-52,164,32,-15,227,21,-41,173,41,-47,228,35,-13,212,31,-50,162,32,-19,230,27,-36,179,42,-46,223,34,-14,229,28,-52,157,32,-16,225,20,-37,186,40,-51,215,29,-12,217,22,-50,155,29,-27,235,28,-36,191,43,-48,208,29,-16,231,21,-53,151,29,-25,233,24,-33,195,41,-50,196,26,-12,227,18,-50,149,22,-30,232,22,-35,205,36,-50,192,23,-10,231,16,-57,153,23,-29,237,25,-33,208,32,-53,184,18,-14,234,15,-50,152,24,-34,228,26,-33,215,31,-50,172,17,-14,225,9,-55,160,18,-35,238,26,-33,217,32,-54,173,18,-11,234,15,-52,157,21,-38,235,26,-29,218,26,-50,161,15,-19,229,12,-48,162,20,-44,238,27,-55,165,21,-13,239,18,-48,160,22,-45,237,30,-26,221,23,-46,144,17,-23,236,18,-46,177,29,-44,232,34,-20,228,23,-56,154,22,-17,237,25,-39,175,31,-47,227,35,-20,219,22,-41,143,22,-27,243,29,-39,181,32,-45,215,36,-21,239,24,-53,147,26,-22,240,29,-38,191
37.33, 34091.66,34,-30,198,41,-47,187,31,-17,225,19,-47,151,30,-32,245,36,-33,212,41,-48,185,31,-10,233,18,-51,150,27,-36,238,30,-27,213,40,-46,169,28,-13,223,14,-48,162,28,-38,240,36,-30,223,36,-54,173,25,-8,236,16,-53,159,29,-43,240,32,-25,215,33,-46,154,18,-19,234,16,-48,168,31,-41,235,34,-24,229,31,-54,157,21,-12,233,13,-47,171,28,-48,235,30,-20,212,26,-46,149,21,-23,245,21,-42,170,30,-46,221,27,-22,236,21,-55,150,20,-18,240,18,-43,179,26,-49,220,26,-19,218,15,-48,142,15,-26,243,20,-43,188,29,-47,212,27,-17,230,14,-55,150,21,-26,241,25,-35,185,29,-51,203,25,-22,227,12,-48,147,22,-28,243,29,-40,197,29,-50,203,26,-15,229,12,-53,152,25,-32,241,32,-30,198,36,-48,194,31,-19,223,12,-47,149,24,-36,247,33,-33,205,32,-51,186,29,-15,234,14,-49,153,30,-40,240,33,-27,202,32,-18,228,17,-47,163,34,-37,240,39,-27,217,32,-52,179,31,-12,225,15,-43,163,33,-46,239,36,-18,207,35,-47,164,33,-19,227,23,-42,172,41,-44,235,39,-20,220,29,-54,168,32,-15,228,23,-38,170,37,-49,231,36,-13,211,29,-45,156,30,-24,234,25,-40,180,40,-46,223,34,-17,233,27,-53,155,31,-20,227,23,-36,185,39,-52,212,30,-14,221,23,-49,151,26,-23,232
37.55, 34086.66,24,-28,240,27,-41,208,35,-50,193,18,-12,234,15,-56,151,23,-30,238,26,-31,201,37,-45,175,19,-14,230,13,-53,153,18,-32,236,24,-35,223,35,-53,181,23,-6,231,14,-54,155,20,-35,235,22,-28,210,27,-52,173,17,-16,226,10,-51,156,21,-38,241,32,-33,226,33,-54,175,23,-11,230,12,-53,159,21,-45,244,28,-27,215,30,-48,156,18,-24,228,13,-49,170,27,-44,234,33,-26,224,30,-56,163,23,-14,236,18,-50,168,28,-48,236,29,-21,219,25,-47,147,22,-24,233,21,-40,181,38,-45,223,38,-18,226,27,-57,160,28,-16,236,23,-40,178,34,-51,221,30,-17,223,25,-44,144,26,-24,235,29,-37,191,41,-42,212,37,-11,235,24,-55,154,29,-17,231,24,-34,193,39,-49,205,30,-14,218,21,-46,145,25,-31,238,29,-35,206,45,-49,197,21,-57,158,29,-29,237,31,-31,201,40,-53,193,27,-19,221,16,-44,145,24,-37,245,31,-39,212,43,-47,183,28,-10,236,19,-56,151,26,-31,237,28,-32,218,40,-52,172,23,-12,225,14,-49,158,28,-38,239,31,-30,217,35,-51,171,22,-13,231,15,-52,159,22,-41,244,28,-28,217,32,-50,162,17,-13,234,15,-48,157,21,-41,236,24,-28,225,25,-49,155,15,-15,239,16,-50,168,25,-42,230,27,-23,225,23,-53,156,16,-18,233,16,-43,166,27,-50,231,30,-24,225,21,-48,148
37.55, 34081.66,16,-49,140,19,-27,249,25,-45,191,31,-47,212,30,-19,225,12,-51,144,20,-31,242,27,-37,190,33,-47,207,33,-20,226,14,-49,149,24,-30,243,29,-35,199,34,-49,201,32,-16,221,15,-47,151,26,-34,244,34,-29,200,36,-47,192,33,-12,229,17,-50,152,32,-35,245,37,-27,209,36,-47,182,33,-16,222,14,-44,158,31,-41,244,38,-28,211,36,-48,178,34,-15,231,20,-49,167,37,-43,236,37,-22,210,33,-51,173,35,-17,219,19,-40,162,36,-46,241,38,-21,219,34,-50,161,30,-17,230,16,-46,175,37,-46,228,34,-21,214,27,-49,161,29,-21,227,22,-40,176,37,-49,227,31,-20,227,25,-53,154,26,-18,234,21,-38,183,38,-50,216,30,-16,217,22,-25,234,25,-41,190,37,-48,216,31,-12,232,19,-57,151,22,-19,237,22,-36,189,32,-49,204,24,-17,219,14,-46,143,19,-30,239,26,-39,203,33,-47,198,22,-11,235,14,-60,150,22,-26,241,23,-34,203,34,-51,185,24,-18,218,9,-48,151,18,-36,242,27,-38,208,33,-52,185,27,-8,240,16,-57,154,23,-34,238,24,-29,213,27,-50,171,18,-23,219,10,-46,161,26,-44,238,35,-30,215,30,-53,173,23,-15,235,14,-54,161,26,-43,244,33,-23,217,30,-50,156,22,-23,226,15,-44,169,32,-44,233,39,-23,221,28,-53,164,28,-15,237,19,-47,171,27,-46,226,28,-19,224
37.35, 34075.00,29,-17,224,23,-46,144,24,-26,231,30,-38,197,45,-44,204,38,-11,235,27,-55,155,29,-19,238,28,-35,199,35,-51,192,23,-16,224,19,-42,144,26,-35,237,34,-35,207,42,-45,185,28,-10,236,22,-61,158,29,-24,243,32,-33,212,39,-53,180,24,-13,227,14,-43,148,23,-39,237,31,-34,211,35,-44,169,23,-12,236,20,-60,165,27,-33,242,32,-31,219,32,-54,169,18,-14,232,15,-46,155,26,-44,233,30,-28,218,28,-45,153,18,-16,237,16,-55,172,26,-40,234,27,-20,222,26,-58,154,17,-16,233,17,-40,166,25,-47,231,31,-25,221,21,-44,146,20,-49,176,26,-45,224,29,-21,229,18,-51,144,18,-26,238,19,-39,179,28,-49,214,29,-20,226,17,-51,147,21,-21,247,27,-43,190,27,-48,211,24,-16,228,15,-50,148,26,-31,237,29,-32,187,29,-47,201,31,-22,225,12,-48,151,24,-33,249,33,-39,194,29,-48,198,28,-20,237,13,-53,149,27,-34,240,32,-32,201,35,-50,190,34,-20,221,15,-47,155,30,-39,247,36,-27,206,33,-50,182,31,-15,227,16,-46,160,34,-40,242,40,-23,207,37,-47,177,36,-15,230,21,-42,162,35,-43,237,37,-22,222,31,-49,165,31,-18,221,17,-43,171,37,-47,227,36,-16,215,33,-51,169,35,-11,229,26,-45,178,40,-47,231,31,-13,224,25,-52,156,26,-22,226,19,-32,177,40,-50,218
37.43, 34081.66,40,-51,206,33,-15,222,18,-52,149,21,-27,242,25,-43,202,35,-52,198,23,-11,232,18,-53,146,24,-30,232,24,-33,205,37,-49,184,23,-11,233,14,-55,151,18,-27,242,25,-34,216,33,-55,177,17,-11,229,12,-49,153,19,-35,236,25,-33,212,29,-49,171,20,-12,233,15,-59,161,25,-37,240,28,-27,218,27,-57,168,15,-14,228,12,-49,156,22,-44,241,30,-32,215,26,-46,158,19,-16,238,21,-52,170,30,-43,237,34,-23,224,25,-54,156,18,-21,233,28,-47,226,36,-26,229,29,-50,152,28,-15,233,19,-48,183,27,-48,227,28,-17,228,23,-53,152,25,-23,228,24,-35,177,34,-48,213,35,-19,222,23,-48,148,27,-22,244,30,-44,194,35,-46,213,31,-14,236,23,-55,147,26,-24,236,29,-33,194,38,-46,199,34,-17,222,18,-45,143,22,-31,245,32,-39,209,42,-46,191,33,-11,236,23,-56,154,31,-31,236,31,-31,204,36,-50,183,25,-15,223,14,-50,155,28,-37,245,37,-34,215,40,-49,177,27,-10,232,17,-53,158,30,-36,236,32,-26,212,37,-51,168,25,-14,226,15,-47,162,28,-41,239,33,-28,223,33,-54,165,22,-11,235,14,-49,161,27,-45,237,31,-23,219,29,-49,154,19,-17,234,16,-45,172,32,-44,231,32,-20,228,27,-52,152,20,-14,233,15,-42,176,27,-50,228,28,-20,215,17,-47,146,15,-26,242,23,-43,182
37.45, 34078.33,25,-35,193,30,-48,200,31,-15,232,14,-53,148,22,-27,243,27,-37,204,29,-51,193,27,-15,220,10,-49,156,26,-36,240,33,-28,203,32,-52,190,31,-14,227,13,-52,157,26,-37,246,32,-28,209,30,-53,177,25,-19,223,12,-46,167,32,-45,237,35,-26,211,28,-55,178,25,-16,229,18,-51,167,33,-44,242,37,-24,214,32,-50,166,28,-18,227,21,-42,171,37,-17,219,27,-50,159,29,-21,228,23,-38,177,38,-49,227,39,-16,228,31,-50,153,31,-19,234,29,-37,187,39,-48,212,33,-12,223,24,-49,153,29,-23,232,28,-32,192,40,-46,203,30,-11,231,19,-52,154,26,-23,231,25,-34,201,38,-52,197,23,-11,226,16,-52,153,26,-33,236,28,-34,205,38,-48,191,23,-13,237,19,-56,150,25,-31,238,29,-35,216,39,-50,173,22,-12,227,17,-51,156,26,-38,235,30,-31,216,35,-51,171,22,-13,235,18,-53,159,26,-39,236,31,-28,219,30,-53,165,18,-15,233,16,-46,161,23,-43,236,28,-25,225,24,-51,155,18,-15,235,16,-47,170,25,-43,232,28,-20,214,17,-51,150,12,-22,244,18,-46,177,25,-45,226,28,-21,233,17,-54,150,15,-18,236,16,-41,178,21,-50,219,25,-23,220,17,-48,146,22,-25,243,28,-42,189,29,-48,216,30,-18,230,13,-57,149,21,-27,241,28,-33,191,31,-48,198,30,-23,219,12,-45,150,24,-33,245
37.49, 34066.66,32,-41,245,41,-29,210,31,-52,178,32,-14,234,16,-51,161,32,-40,239,35,-22,212,33,-49,168,32,-18,225,23,-43,173,38,-41,232,38,-20,217,28,-55,171,31,-13,224,22,-39,170,37,-48,235,36,-15,217,28,-48,155,29,-20,231,25,-38,181,43,-46,217,36,-14,230,24,-17,226,20,-39,189,35,-51,214,30,-13,224,23,-51,153,28,-25,229,24,-34,194,39,-51,202,29,-13,227,19,-54,153,26,-27,232,24,-33,199,35,-54,199,27,-13,230,18,-51,145,20,-33,239,23,-36,207,36,-49,182,23,-13,234,18,-53,152,23,-32,232,26,-31,217,32,-54,176,19,-9,229,13,-54,157,21,-36,242,28,-29,215,31,-52,167,15,-14,233,14,-51,160,22,-41,234,28,-29,223,27,-53,161,17,-17,235,14,-51,164,24,-45,229,27,-27,224,23,-54,157,18,-15,233,16,-50,175,25,-47,233,26,-20,223,20,-55,154,18,-22,237,23,-41,172,24,-50,226,28,-26,223,14,-47,145,19,-24,246,30,-45,180,30,-43,216,30,-18,233,18,-58,152,24,-21,239,29,-34,183,28,-49,215,31,-24,225,15,-43,140,19,-32,247,32,-40,198,35,-45,198,37,-14,234,21,-54,156,30,-25,237,33,-30,198,31,-52,203,34,-15,221,15,-42,146,31,-37,246,39,-27,203,38,-46,181,36,-16,232,21,-51,155,32,-35,240,37,-29,213,36,-51,178,29,-14,229,16,-47,157
37.51, 34056.66,17,-43,167,30,-49,238,35,-22,223,30,-49,152,29,-19,235,24,-43,177,35,-47,226,34,-19,226,25,-50,154,24,-20,230,21,-39,183,34,-50,220,32,-16,220,20,-48,146,24,-39,192,35,-48,207,28,-14,229,16,-53,144,23,-26,232,22,-35,201,35,-50,198,28,-12,222,12,-52,150,20,-29,239,24,-36,203,31,-52,193,23,-14,226,12,-53,151,22,-33,240,28,-32,210,35,-51,182,24,-14,222,9,-55,156,20,-40,242,28,-30,211,35,-54,174,23,-17,225,12,-52,159,23,-43,239,30,-28,216,29,-55,169,24,-16,232,13,-50,162,25,-45,238,30,-28,222,29,-52,156,22,-19,229,15,-46,170,32,-48,229,36,-20,217,25,-54,160,24,-18,235,20,-47,175,32,-49,230,33,-18,225,25,-50,149,21,-24,234,23,-36,182,37,-46,217,35,-19,228,25,-51,151,25,-17,236,29,-40,191,36,-48,213,30,-13,228,19,-50,148,23,-26,236,26,-35,192,39,-45,202,33,-16,230,23,-50,150,29,-27,238,31,-39,205,37,-50,195,29,-13,227,17,-50,148,27,-36,235,30,-31,208,40,-48,181,29,-14,227,17,-53,157,28,-36,241,34,-30,215,40,-54,177,28,-12,230,15,-48,155,24,-40,236,29,-28,217,34,-49,166,22,-12,234,16,-51,161,32,-26,229,34,-52,159,20,-12,230,13,-46,163,23,-46,235,30,-24,220,28,-50,152,22,-15,242,19,-48,167
37.51, 34049.16,16,-26,247,24,-45,184,29,-49,218,29,-19,226,16,-54,143,19,-27,241,29,-52,211,32,-22,226,15,-47,142,18,-31,248,26,-38,193,28,-51,200,27,-19,229,10,-53,145,18,-33,242,27,-34,199,31,-49,195,29,-15,229,13,-53,155,26,-32,244,34,-29,202,29,-51,192,28,-18,226,13,-45,149,25,-39,244,35,-26,209,37,-49,176,31,-13,231,15,-54,165,30,-38,239,36,-26,217,32,-53,177,29,-17,221,16,-43,163,33,-46,234,37,-19,213,35,-49,166,35,-15,229,23,-47,173,36,-44,234,36,-16,223,29,-55,163,31,-16,225,20,-35,173,40,-51,224,36,-15,216,27,-51,160,32,-19,226,23,-40,181,36,-52,225,32,-16,226,29,-52,152,29,-24,230,24,-36,186,37,-51,208,29,-14,226,21,-52,154,29,-25,229,27,-35,199,40,-50,206,28,-10,231,22,-52,149,27,-29,236,25,-32,201,41,-51,188,22,-11,228,19,-53,151,24,-29,233,27,-34,215,41,-51,186,24,-8,234,18,-55,154,21,-32,233,21,-30,211,32,-52,173,15,-15,231,17,-50,154,23,-39,235,30,-34,219,27,-50,164,14,-11,241,16,-59,164,24,-38,237,30,-55,158,17,-18,228,12,-46,161,18,-46,231,26,-28,224,25,-55,157,19,-17,240,18,-51,169,22,-47,236,29,-22,226,20,-52,144,14,-25,237,18,-41,175,28,-49,227,34,-24,221,19,-49,146,16,-28,247
